Time,Temperature,GRAWX,GRAWY,GRAWZ,GACCELX,GACCELY,GACCELZ
0.125,-18.11594,1.068702,-0.7633588,-0.4122137,0.007182861,-10.01889,-0.3854802
157,-18.59903,1.725191,-0.9160305,-0.519084,0.005985718,-10.02488,-0.3627345
329.625,-18.35749,1.114504,-0.5648855,-0.3053435,0.1077429,-10.00213,-0.3507631
517.125,-18.23672,1.328244,-0.6259542,-0.3358779,0.04908289,-10.00692,-0.3483688
610.5,-18.2971,1.236641,-0.7175573,-0.5648855,0.06464575,-9.939883,-0.3591431
828.75,-18.41788,1.51145,-0.9007633,-0.4732825,0.09577148,-10.02129,-0.3854802
926.625,-18.23672,1.587786,-0.7328244,-0.3358779,0.09577148,-10.08115,-0.4166059
1126,-18.2971,0.870229,-0.778626,-0.2290076,0.1640087,-10.08474,-0.3483688
1252.75,-18.53865,0.870229,-0.961832,-0.610687,0.08020861,-9.969811,-0.3196373
1438.75,-18.71981,1.740458,-0.7938932,-0.6412214,-0.01795715,-10.02967,-0.4070288
1641.625,-18.53865,1.450382,-0.6870229,-0.2900763,0.0658429,-10.00094,-0.3759031
1832.125,-18.35749,1.816794,-0.6259542,-0.4580153,0.07302576,-10.00213,-0.3639316
1923,-18.35749,1.007634,-0.610687,-0.2900763,0.1376715,-9.992558,-0.3136516
2142.75,-18.11594,1.587786,-0.7938932,-0.519084,-0.03112573,-10.04403,-0.3986488
2329.25,-18.59903,1.312977,-0.5801527,-0.5038168,0.08978577,-10.00573,-0.3806916
2423.125,-18.23672,0.5954198,-0.7480916,-0.4427481,0.1173201,-9.9746,-0.4058317
2626,-18.53865,1.374046,-0.519084,-0.5801527,0.1304886,-9.968615,-0.3280173
2751.25,-18.2971,1.526718,-0.870229,-0.4274809,0.03591431,-10.04284,-0.3723117
2954.125,-18.41788,1.282443,-0.8396947,-0.4274809,0.09936292,-9.988966,-0.3184402
3142.125,-18.17633,1.083969,-0.9160305,-0.2442748,0.0742229,-9.986571,-0.3771002
3238.5,-18.17633,1.328244,-0.7480916,-0.7328244,-0.004788574,-10.00213,-0.4034374
3454.25,-18.11594,0.610687,-0.7938932,-0.5343512,-0.0191543,-9.996149,-0.3723117
3548.125,-18.2971,1.145038,-0.9007633,-0.3358779,-0.02633716,-9.965023,-0.3435802
3737.125,-18.35749,1.557252,-0.6259542,-0.5801527,0.1328829,-10.03565,-0.3986488
3923.125,-18.59903,1.572519,-0.8854962,-0.3664122,0.01556287,-10.00453,-0.3711145
4141.375,-18.35749,1.206107,-0.8396947,-0.3206107,0,-10.04164,-0.3926631
4266.625,-18.41788,1.114504,-0.8091603,-0.3969466,0.09218005,-10.00692,-0.3866774
4454.125,-18.35749,1.389313,-0.7175573,-0.5801527,0.02633716,-10.0596,-0.3818888
4563.375,-18.41788,0.7633588,-0.9923664,-0.4427481,0.1101372,-9.912349,-0.3962545
4766.25,-18.41788,1.328244,-0.7480916,-0.519084,0.003591431,-9.925517,-0.3064688
4953.75,-18.53865,1.251908,-0.7175573,-0.4122137,0.009577149,-10.10988,-0.3854802
5047.625,-18.2971,1.664122,-0.5648855,-0.4885496,0.1053486,-10.00692,-0.4190002
5265.875,-18.35749,1.19084,-0.6870229,-0.5496183,0.1412629,-10.00094,-0.3352002
5375.75,-18.23672,0.9465649,-0.6870229,-0.5496183,0.02154858,-9.984178,-0.3459745
5563.25,-18.41788,1.129771,-0.6564885,-0.2748092,-0.02873144,-9.933897,-0.3507631
5765.625,-18.05556,1.343511,-0.7633588,-0.3053435,0.05028003,-9.992558,-0.3926631
5969.5,-18.11594,1.541985,-0.7175573,-0.3969466,0.05147717,-9.975798,-0.3495659
6032,-18.2971,0.9923664,-0.8091603,-0.6259542,0.1041515,-10.01411,-0.3483688
6266.25,-18.17633,0.9923664,-0.8854962,-0.6870229,0.02873144,-10.04164,-0.4429431
6361.125,-18.2971,1.099237,-0.7328244,-0.351145,0.01556287,-9.911152,-0.3375945
6563.5,-18.35749,1.099237,-0.7175573,-0.3664122,-0.03950574,-10.03805,-0.3471716
6688.75,-18.65942,1.29771,-0.7022901,-0.4427481,0.08499719,-10.07875,-0.3782974
6907,-18.23672,1.557252,-0.8854962,-0.3358779,0,-10.03087,-0.3782974
7095,-18.2971,1.343511,-0.9160305,-0.2900763,0.1496429,-10.0572,-0.3806916
7174.5,-18.2971,1.312977,-0.5801527,-0.4427481,0.02394287,-9.912349,-0.3926631
7392.25,-18.23672,1.251908,-0.6564885,-0.3816794,0.02274573,-9.953052,-0.3938602
7579.75,-18.17633,0.870229,-0.8549618,-0.4580153,0.08499719,-9.99974,-0.3328059
7675.625,-18.41788,0.9465649,-0.5801527,-0.3664122,0.1245029,-10.06558,-0.3328059
7863.625,-18.23672,1.343511,-1.022901,-0.3816794,0.06823719,-9.986571,-0.3579459
8064.5,-18.11594,1.282443,-0.610687,-0.5648855,0.07302576,-9.962628,-0.3830859
8205.125,-18.23672,0.9923664,-0.7328244,-0.4274809,0.1340801,-9.96622,-0.3555516
8392.625,-18.11594,1.068702,-0.610687,-0.7175573,0.04908289,-10.03446,-0.3579459
8487,-18.17633,0.8396947,-0.7022901,-0.4274809,0.1137286,-10.00094,-0.3399888
8705.25,-18.2971,1.160305,-0.7328244,-0.3664122,0.08140576,-10.08115,-0.3352002
8799.125,-18.23672,1.267176,-0.5343512,-0.4122137,0.04549145,-10.03446,-0.3651288
8988.125,-18.41788,0.7175573,-0.7480916,-0.5496183,-0.01676001,-9.998543,-0.3818888
9174.125,-18.23672,1.29771,-0.8396947,-0.5343512,0.08140576,-9.990163,-0.3423831
9392.375,-18.59903,1.129771,-0.6870229,-0.4580153,0.06704004,-10.05481,-0.3914659
9502.25,-18.11594,1.236641,-0.9160305,-0.5038168,0.07063147,-9.990163,-0.3100602
9720.5,-18.2971,1.236641,-0.9160305,-0.5496183,0.08020861,-10.02368,-0.4106202
9892.625,-18.23672,1.312977,-0.870229,-0.5648855,0.07901148,-10.02249,-0.3663259
9986.5,-18.2971,1.007634,-0.6259542,-0.3969466,0.08739148,-10.06558,-0.3375945
10204.75,-18.35749,0.9160305,-0.6564885,-0.351145,0.08020861,-9.95784,-0.3663259
10298.13,-18.17633,1.007634,-0.6412214,-0.3358779,0.06344861,-9.984178,-0.3938602
10502,-18.23672,0.2137405,-0.8549618,-0.3053435,0.05028003,-9.963826,-0.3184402
10627.25,-18.17633,1.40458,-0.7633588,-0.5038168,0.07781433,-9.986571,-0.3782974
10829.63,-18.23672,1.236641,-0.6564885,-0.4274809,0.1053486,-9.985374,-0.3411859
11018.13,-18.2971,0.8091603,-0.8396947,-0.4274809,0.09816577,-10.02608,-0.4034374
11205.13,-18.11594,1.480916,-0.7938932,-0.3664122,0.1113344,-9.937489,-0.3028773
11387.63,-18.17633,1.480916,-0.6870229,-0.2137405,0.1113344,-10.03087,-0.3926631
11514.88,-18.23672,1.236641,-0.5648855,-0.4427481,0.001197144,-9.963826,-0.3890716
11716.25,-18.2971,1.496183,-0.7328244,-0.5954198,0.09936292,-10.00692,-0.3663259
11903.75,-18.23672,0.6717557,-0.7938932,-0.3664122,0.08499719,-10.05361,-0.3483688
12006.13,-18.17633,1.053435,-0.7328244,-0.4274809,0.08020861,-10.02727,-0.3112573
12215.88,-18.11594,0.6564885,-0.7022901,-0.5038168,0.02633716,-10.05601,-0.3399888
12310.25,-18.17633,0.8854962,-0.8244275,-0.3969466,0.08140576,-9.911152,-0.3220316
12512.63,-18.17633,1.419847,-0.8549618,-0.4427481,0.1041515,-9.978191,-0.3196373
12637.88,-18.23672,1.053435,-0.6717557,-0.5038168,0.07661719,-10.00213,-0.3950574
12856.13,-18.53865,1.221374,-0.8854962,-0.2137405,0.09098291,-9.961432,-0.3447773
13028.75,-18.23672,1.526718,-0.8396947,-0.3969466,0.02394287,-10.00812,-0.3184402
13122.63,-18.23672,1.526718,-0.8091603,-0.610687,0.03950574,-10.01171,-0.3627345
13340.88,-18.35749,1.236641,-0.778626,-0.7328244,0.05147717,-9.94946,-0.3854802
13436.25,-18.11594,1.312977,-0.8854962,-0.4885496,0.06943433,-9.973403,-0.325623
13638.13,-18.11594,0.8854962,-0.6870229,-0.519084,0.09816577,-10.02249,-0.3914659
13763.38,-18.23672,1.465649,-0.9770992,-0.3053435,0.1233058,-10.01051,-0.2944973
13966.75,-18.17633,1.175573,-0.8549618,-0.7175573,0.1077429,-10.05002,-0.308863
14155.75,-18.11594,1.145038,-0.5496183,-0.351145,-0.02154858,-9.959037,-0.3387916
14251.13,-18.11594,1.267176,-0.7938932,-0.4580153,-0.001197144,-10.04284,-0.4166059
14465.88,-18.11594,1.007634,-0.7175573,-0.3053435,0.06225146,-10.06079,-0.3028773
14653.38,-18.17633,1.206107,-0.6717557,-0.519084,0.01676001,-9.9327,-0.3447773
14748.75,-18.11594,0.6870229,-0.7175573,-0.5038168,0.06704004,-9.894391,-0.4429431
14950.13,-18.11594,0.8091603,-0.8244275,-0.3664122,0.07781433,-9.978191,-0.4010431
15076.38,-18.17633,1.465649,-0.7022901,-0.4274809,0.09936292,-10.00692,-0.4118174
15280.25,-18.17633,1.129771,-0.7633588,-0.4732825,0.1173201,-10.02249,-0.4225917
15466.75,-18.05556,1.206107,-0.7480916,-0.6259542,0.1556287,-10.01051,-0.3639316
15563.13,-18.17633,0.9312977,-0.778626,-0.4885496,0.09098291,-9.889603,-0.3794945
15780.38,-18.05556,1.328244,-0.9007633,-0.519084,0.0550686,-9.979388,-0.3543545
15966.38,-18.11594,1.221374,-0.7328244,-0.778626,0.1436572,-9.96622,-0.3399888
16062.25,-18.17633,1.343511,-0.7022901,-0.351145,0.0658429,-10.01051,-0.3316088
16263.63,-18.05556,1.29771,-0.8091603,-0.3969466,0.1017572,-9.980586,-0.3567488
16388.88,-18.11594,1.251908,-0.9770992,-0.3969466,0.08499719,-9.954248,-0.3459745
16591.25,-18.23672,1.29771,-0.6412214,-0.4885496,0.08858863,-9.947065,-0.3794945
16781.75,-18.11594,0.7480916,-0.8396947,-0.4274809,0.08020861,-9.942277,-0.2801316
16873.63,-17.93478,1.099237,-0.7633588,-0.3358779,0.09577148,-10.07636,-0.3938602
17091.88,-18.23672,0.4885496,-0.7480916,-0.3358779,-0.002394287,-10.00932,-0.3363973
17187.25,-18.2971,0.9007633,-0.8396947,-0.5648855,0.02274573,-9.996149,-0.3651288
17373.75,-18.17633,1.053435,-0.7480916,-0.5496183,0.01676001,-10.02009,-0.3794945
17576.63,-18.11594,1.450382,-0.778626,-0.4580153,0.09218005,-10.02608,-0.3399888
17717.25,-18.11594,0.8854962,-0.5343512,-0.3969466,0.07542004,-9.985374,-0.3627345
17904.75,-18.11594,1.19084,-0.7175573,-0.3664122,0.01795715,-10.03805,-0.3471716
18092.75,-18.11594,0.7938932,-0.9160305,-0.3664122,0.02633716,-9.996149,-0.3854802
18280.75,-17.8744,0.7633588,-0.6717557,-0.3816794,0.0550686,-9.95784,-0.3794945
18374.63,-18.11594,1.312977,-0.778626,-0.4274809,0.03471716,-10.1003,-0.3471716
18592.38,-18.2971,1.328244,-0.6717557,-0.5343512,0.1316858,-10.05601,-0.3651288
18686.75,-18.41788,1.29771,-0.8854962,-0.3969466,0.06225146,-9.933897,-0.3627345
18889.13,-18.17633,1.755725,-0.8091603,-0.2442748,0.08380005,-10.06319,-0.3471716
19014.88,-18.17633,1.312977,-0.778626,-0.4732825,0.1316858,-9.968615,-0.3375945
19217.25,-17.81401,1.526718,-0.7480916,-0.5343512,0.04070288,-10.0584,-0.3639316
19405.25,-18.23672,1.145038,-0.778626,-0.4885496,0.04788574,-10.01889,-0.3842831
19501.63,-18.17633,1.236641,-0.778626,-0.2748092,0.06704004,-9.987769,-0.325623
19717.38,-18.17633,1.038168,-0.610687,-0.519084,0.1472487,-9.996149,-0.4453374
19811.75,-18.17633,0.9312977,-0.778626,-0.3969466,0.06943433,-10.02967,-0.3435802
20014.63,-17.93478,1.251908,-0.8549618,-0.4427481,0.05267432,-10.03805,-0.3711145
20141.38,-17.8744,1.618321,-0.8244275,-0.5343512,0.0550686,-9.961432,-0.3854802
20342.75,-17.75362,1.618321,-0.9312977,-0.4580153,0.07901148,-9.959037,-0.3531573
20532.75,-18.05556,0.9770992,-0.8549618,-0.3816794,0.001197144,-9.944672,-0.3723117
20627.63,-18.11594,1.068702,-0.7328244,-0.4427481,0.01795715,-9.959037,-0.4154088
20843.38,-18.11594,1.038168,-0.870229,-0.610687,0.06464575,-9.94946,-0.4010431
20938.75,-18.17633,1.038168,-0.8396947,-0.5648855,0.1053486,-10.00094,-0.3280173
21140.13,-17.75362,1.175573,-0.9007633,-0.610687,0.1017572,-10.0572,-0.3759031
21266.88,-18.17633,1.267176,-0.4427481,-0.4274809,0.09457434,-9.965023,-0.3854802
21467.75,-18.11594,1.175573,-0.9160305,-0.4580153,0.0191543,-9.986571,-0.3591431
21657.75,-17.93478,1.770992,-0.8396947,-0.4732825,0.04070288,-9.963826,-0.2956945
21749.63,-17.93478,0.519084,-0.6870229,-0.6412214,0.07182861,-10.00692,-0.3711145
21967.88,-18.11594,1.251908,-0.7633588,-0.519084,0.02274573,-10.07277,-0.3890716
22062.25,-17.93478,0.9770992,-0.7480916,-0.5038168,0.05626575,-10.0572,-0.3208345
22264.63,-17.93478,0.9770992,-0.7328244,-0.3816794,0.1149258,-9.99136,-0.3615374
22389.88,-18.17633,1.175573,-0.8549618,-0.4885496,0.05147717,-9.981783,-0.3471716
22592.75,-18.05556,1.557252,-0.6870229,-0.3969466,0.01556287,-10.03565,-0.3747059
22796.13,-18.11594,1.053435,-0.7938932,-0.5648855,0.05028003,-9.975798,-0.3244259
22876.13,-18.11594,1.328244,-0.6717557,-0.4580153,0.0658429,-9.976995,-0.3806916
23092.88,-17.8744,1.267176,-0.7328244,-0.3816794,0.05387146,-9.985374,-0.3615374
23186.75,-18.05556,1.175573,-0.778626,-0.4427481,0.02274573,-9.98298,-0.3028773
23405,-18.17633,1.374046,-0.8244275,-0.2442748,0.08619434,-10.00453,-0.3471716
23515.88,-18.11594,0.7938932,-0.9312977,-0.4122137,0.0658429,-10.03446,-0.3471716
23718.25,-18.11594,0.7480916,-0.7633588,-0.4732825,0.03950574,-9.987769,-0.3842831
23905.75,-17.81401,1.603053,-0.7938932,-0.519084,0.04788574,-9.968615,-0.3735088
24015,-18.11594,0.9007633,-0.7633588,-0.351145,0.1173201,-9.992558,-0.3399888
24218.38,-17.75362,0.9312977,-0.7175573,-0.5038168,0.05866003,-9.942277,-0.3519602
24313.25,-18.17633,1.007634,-0.8396947,-0.2900763,0.05028003,-10.05241,-0.3543545
24515.63,-17.81401,1.221374,-0.778626,-0.6564885,0.04788574,-10.04643,-0.4094231
24641.88,-18.05556,1.664122,-0.870229,-0.4885496,0.1017572,-9.98298,-0.3962545
24828.88,-17.93478,1.145038,-0.8244275,-0.4732825,0.05267432,-9.973403,-0.3495659
25017.88,-18.05556,0.6870229,-0.9007633,-0.5648855,0.09816577,-10.05601,-0.4010431
25218.75,-18.11594,1.053435,-0.6259542,-0.3816794,0.04908289,-10.04044,-0.3663259
25422.13,-18.17633,0.6870229,-0.9007633,-0.4732825,0.09098291,-10.01291,-0.3519602
25594.75,-18.05556,1.083969,-0.8396947,-0.4580153,0.007182861,-9.913546,-0.3794945
25691.13,-17.75362,1.022901,-0.8549618,-0.4732825,0.05147717,-9.953052,-0.3459745
25906.38,-17.93478,1.709924,-0.8396947,-0.6717557,0.1065458,-9.96622,-0.3747059
26002.25,-17.93478,1.496183,-0.7022901,-0.4885496,0.1101372,-9.965023,-0.2861173
26203.63,-17.8744,1.083969,-0.8244275,-0.6412214,0.04908289,-9.953052,-0.3962545
26329.38,-17.81401,1.374046,-0.7480916,-0.4580153,0.05746289,-9.98298,-0.3543545
26532.25,-17.75362,1.312977,-0.8091603,-0.3816794,0.08020861,-10.06678,-0.3280173
26719.75,-18.11594,1.29771,-0.7328244,-0.5343512,0.08858863,-10.04523,-0.3483688
26813.63,-17.8744,1.160305,-0.8396947,-0.4885496,0.07542004,-9.98298,-0.3603402
27032.38,-17.81401,1.038168,-0.7022901,-0.610687,0.07901148,-9.963826,-0.3747059
27127.75,-18.05556,1.114504,-0.610687,-0.4274809,0.06105432,-9.959037,-0.3818888
27329.13,-17.81401,1.312977,-0.7175573,-0.5038168,0.07781433,-9.998543,-0.3806916
27454.38,-17.8744,1.328244,-0.778626,-0.5801527,0.1077429,-10.04284,-0.4261831
27657.25,-17.93478,1.29771,-0.6259542,-0.4732825,-0.004788574,-9.923123,-0.325623
27845.25,-17.8744,1.51145,-0.6564885,-0.519084,0.04908289,-10.02129,-0.3543545
28032.75,-18.05556,1.328244,-0.8549618,-0.4885496,0.0275343,-9.996149,-0.3818888
28126.63,-17.75362,1.374046,-0.7022901,-0.4427481,0.1436572,-10.03925,-0.3651288
28344.88,-17.75362,1.19084,-0.8244275,-0.2748092,0.0658429,-9.937489,-0.4046345
28439.25,-17.75362,1.679389,-0.8549618,-0.351145,0.08978577,-10.04763,-0.2968916
28641.63,-17.81401,1.465649,-0.7175573,-0.6564885,0.04190002,-10.02368,-0.3603402
28767.38,-17.93478,1.007634,-0.7022901,-0.4427481,0.05985718,-9.965023,-0.3806916
28970.25,-17.81401,1.145038,-0.6412214,-0.259542,0.07901148,-9.936292,-0.3543545
29158.75,-18.11594,1.633588,-0.9007633,-0.3053435,0.04788574,-10.0584,-0.399846
29251.63,-17.8744,1.083969,-0.6717557,-0.4427481,0.02873144,-9.996149,-0.3890716
29469.88,-17.75362,1.282443,-0.8244275,-0.4122137,0.09577148,-9.979388,-0.3471716
29564.25,-17.75362,0.9770992,-0.8854962,-0.4885496,0.07063147,-10.04164,-0.3878745
29766.63,-17.8744,0.6564885,-0.9007633,-0.3206107,0.1113344,-9.939883,-0.3268202
29891.88,-17.8744,1.267176,-0.8854962,-0.7022901,0.1268972,-9.994951,-0.3663259
30094.75,-17.81401,1.206107,-0.870229,-0.4732825,0.1101372,-9.972206,-0.3723117
30282.75,-17.75362,1.053435,-0.8549618,-0.3053435,0.05267432,-9.923123,-0.4237888
30470.25,-18.05556,1.465649,-0.6259542,-0.5343512,0.08140576,-10.0165,-0.3268202
30564.63,-17.93478,1.007634,-0.8854962,-0.3969466,0.08858863,-9.978191,-0.3411859
30782.38,-17.75362,1.053435,-0.870229,-0.6564885,0.08978577,-9.969811,-0.3914659
30969.88,-17.8744,0.7633588,-0.778626,-0.4122137,0.03950574,-9.956643,-0.3052716
31157.38,-17.8744,1.221374,-0.351145,-0.4274809,0.04788574,-10.02608,-0.4094231
31252.75,-17.81401,1.328244,-0.7633588,-0.519084,0.04070288,-9.990163,-0.399846
31454.13,-17.75362,1.053435,-0.7938932,-0.5801527,0.02274573,-9.99136,-0.3651288
31594.75,-17.81401,1.251908,-0.7938932,-0.4427481,0.04190002,-9.998543,-0.3974517
31782.75,-17.75362,1.633588,-0.7938932,-0.3053435,0.0275343,-9.993754,-0.3711145
31892.5,-17.81401,1.435115,-0.7633588,-0.5801527,0.09816577,-9.997346,-0.3328059
32095.38,-18.11594,1.068702,-0.8549618,-0.2290076,0.08739148,-10.04164,-0.3495659
32282.88,-17.8744,1.312977,-1.007634,-0.4732825,0.08020861,-9.997346,-0.3747059
32379.75,-17.8744,1.267176,-0.8244275,-0.6564885,0.1412629,-10.00812,-0.3771002
32579.63,-17.69324,1.022901,-0.961832,-0.3816794,0.03830859,-10.05601,-0.3471716
32707.38,-17.69324,0.9160305,-0.7633588,-0.3969466,0.06943433,-10.02249,-0.3830859
32908.25,-17.75362,1.251908,-0.7633588,-0.4732825,0.06704004,-9.99974,-0.3747059
33111.13,-18.17633,0.7328244,-0.4732825,-0.351145,0.08978577,-10.01171,-0.4034374
33285.75,-17.75362,1.022901,-0.6717557,-0.3206107,0.05387146,-10.03685,-0.4130145
33472.25,-17.75362,1.145038,-0.610687,-0.778626,0.07542004,-9.959037,-0.4142117
33565.13,-17.75362,1.40458,-0.9007633,-0.5496183,0.0742229,-10.03565,-0.3771002
33783.88,-17.69324,1.633588,-0.5801527,-0.5343512,0.03232288,-9.998543,-0.3711145
33880.75,-17.75362,1.099237,-0.870229,-0.4885496,0.04429431,-9.99974,-0.4273803
34080.63,-17.93478,0.6870229,-0.6259542,-0.4580153,0.1029543,-9.95784,-0.3136516
34207.38,-17.75362,0.961832,-0.8244275,-0.4580153,0.1137286,-10.02009,-0.3531573
34424.63,-17.81401,1.435115,-0.7328244,-0.3206107,0.08858863,-10.00573,-0.3148488
34597.25,-17.75362,1.496183,-0.778626,-0.5343512,0.05626575,-9.976995,-0.3435802
34693.63,-17.69324,1.19084,-0.8244275,-0.3816794,0.06225146,-10.03565,-0.408226
34908.88,-17.75362,1.312977,-0.5954198,-0.5648855,0.1376715,-10.01051,-0.3699174
35096.38,-17.93478,1.465649,-0.778626,-0.5954198,0.07781433,-9.979388,-0.3675231
35191.75,-17.63285,1.053435,-0.778626,-0.6412214,0.1316858,-9.973403,-0.3375945
35393.13,-17.51208,1.221374,-0.6412214,-0.5954198,0.05147717,-9.963826,-0.3794945
35518.38,-17.63285,1.480916,-0.6564885,-0.6259542,0.05866003,-10.01291,-0.3459745
35721.25,-17.75362,1.496183,-0.8244275,-0.7022901,0.06823719,-9.994951,-0.3064688
35909.25,-17.63285,0.961832,-0.8396947,-0.4885496,0.1077429,-10.03087,-0.3363973
36097.25,-17.75362,1.541985,-0.8549618,-0.4885496,0.09936292,-10.02488,-0.3471716
36192.13,-17.75362,1.435115,-0.778626,-0.5038168,0.004788574,-9.988966,-0.4154088
36409.38,-17.51208,1.160305,-0.778626,-0.3969466,0.03591431,-10.08833,-0.2885116
36503.75,-17.75362,1.480916,-0.7480916,-0.5038168,0.04190002,-9.981783,-0.3627345
36691.75,-17.75362,1.496183,-0.6259542,-0.4580153,0.1257001,-9.996149,-0.3926631
36895.13,-17.69324,1.541985,-0.8549618,-0.5038168,0.08140576,-10.05241,-0.3723117
37034.25,-17.75362,1.068702,-0.7175573,-0.519084,0.1101372,-9.931503,-0.4070288
37238.13,-17.75362,1.160305,-0.7328244,-0.4274809,0.02274573,-10.00453,-0.3675231
37316.63,-17.45169,1.083969,-0.8549618,-0.5343512,0.04429431,-10.0165,-0.2717516
37534.88,-17.75362,1.114504,-0.7480916,-0.4427481,0.06225146,-10.03326,-0.3040745
37628.75,-17.75362,1.114504,-0.6717557,-0.3816794,0.1125315,-9.981783,-0.3806916
37831.63,-17.75362,1.114504,-0.870229,-0.6564885,0.1280944,-10.01051,-0.3471716
37957.38,-17.75362,1.419847,-0.870229,-0.4427481,0.1125315,-10.02967,-0.3280173
38147.38,-17.69324,1.40458,-0.7938932,-0.4732825,0.07661719,-9.968615,-0.3340031
38348.25,-17.75362,1.251908,-0.9770992,-0.4885496,0.03591431,-9.98298,-0.3663259
38535.75,-17.81401,1.328244,-0.6870229,-0.5801527,0.07901148,-10.05361,-0.3711145
38629.13,-17.75362,1.068702,-0.7633588,-0.4732825,0.1556287,-9.990163,-0.2968916
38847.88,-17.63285,1.312977,-0.6412214,-0.3664122,0.07781433,-9.94108,-0.3794945
38943.75,-17.81401,1.587786,-0.778626,-0.3969466,0.1113344,-10.01291,-0.3890716
39129.25,-17.45169,1.114504,-0.7938932,-0.6412214,0.04429431,-9.978191,-0.3363973
39316.75,-17.75362,1.282443,-0.7633588,-0.4122137,0.08020861,-10.02129,-0.4142117
39519.63,-17.63285,1.847328,-0.7938932,-0.4580153,0.03471716,-10.01291,-0.3423831
39644.88,-17.51208,1.450382,-0.6870229,-0.519084,-0.04309717,-9.925517,-0.3363973
39847.75,-17.63285,0.9160305,-0.6412214,-0.5038168,0.01077429,-9.897983,-0.3818888
40035.75,-17.75362,1.099237,-0.7480916,-0.5801527,0.03112573,-10.02847,-0.3316088
40129.63,-17.81401,1.389313,-0.778626,-0.5496183,0.0742229,-10.0572,-0.4034374
40347.88,-17.69324,1.175573,-0.8549618,-0.610687,0.1197144,-9.994951,-0.2992859
40441.75,-17.69324,1.007634,-0.7022901,-0.3816794,0.07542004,-9.99136,-0.4058317
40644.63,-17.75362,1.480916,-0.6717557,-0.5496183,0.1508401,-10.02847,-0.3316088
40769.88,-17.33092,0.8396947,-0.778626,-0.5954198,0.004788574,-10.04164,-0.4190002
40972.25,-17.63285,0.8549618,-0.8396947,-0.3969466,0.1137286,-9.972206,-0.3830859
41163.25,-17.69324,1.312977,-0.8854962,-0.4122137,0.08380005,-9.988966,-0.2561887
41257.63,-17.69324,1.099237,-0.7938932,-0.5954198,0.08380005,-10.02009,-0.3316088
41473.88,-17.69324,1.419847,-0.8854962,-0.4122137,0.08858863,-10.03805,-0.3651288
41661.88,-17.69324,1.40458,-0.6564885,-0.519084,0.07302576,-9.988966,-0.4118174
41847.88,-17.51208,1.40458,-0.7175573,-0.3816794,0.0275343,-10.01889,-0.3423831
41943.25,-17.75362,0.8854962,-0.7328244,-0.6259542,0.1101372,-10.00333,-0.3651288
42144.63,-17.75362,1.282443,-0.778626,-0.5496183,-0.007182861,-10.04763,-0.3866774
42270.38,-17.69324,0.7633588,-0.8091603,-0.4122137,0.04070288,-9.998543,-0.3723117
42473.25,-17.75362,1.114504,-0.5496183,-0.5038168,0.07302576,-9.935095,-0.3627345
42676.13,-17.75362,1.526718,-0.8244275,-0.3816794,0.07182861,-9.969811,-0.3280173
42769.5,-17.33092,1.358779,-1.038168,-0.5648855,0.1257001,-10.02009,-0.3567488
42972.88,-17.63285,1.068702,-0.8091603,-0.5343512,0.06344861,-10.02847,-0.3399888
43067.25,-17.45169,1.038168,-1.022901,-0.5496183,0.07182861,-9.965023,-0.3328059
43270.13,-17.63285,1.435115,-0.778626,-0.6564885,0.1245029,-9.994951,-0.3699174
43395.38,-17.14976,1.236641,-0.7480916,-0.6412214,0.05866003,-9.993754,-0.3818888
43614.13,-17.81401,1.29771,-0.7175573,-0.4580153,0.08619434,-9.99974,-0.2717516
43786.25,-17.45169,1.114504,-0.610687,-0.3664122,0.09218005,-9.960235,-0.3280173
43974.25,-17.75362,1.083969,-1.022901,-0.4427481,0.07901148,-10.03326,-0.3651288
44067.63,-17.81401,1.312977,-0.6259542,-0.3816794,0.05626575,-10.06439,-0.399846
44286.38,-17.63285,0.8854962,-0.778626,-0.4274809,0.02274573,-10.04164,-0.3435802
44473.38,-17.75362,1.099237,-0.610687,-0.4580153,0.08739148,-10.00213,-0.3423831
44570.25,-17.81401,1.358779,-0.778626,-0.5496183,0.09577148,-10.00333,-0.3842831
44756.25,-17.45169,1.19084,-0.8244275,-0.3664122,0.04908289,-10.07875,-0.3747059
44943.25,-17.51208,1.282443,-0.9465649,-0.3053435,0.06464575,-10.00573,-0.4345631
45145.13,-17.45169,1.282443,-0.8244275,-0.4122137,0.09457434,-10.02249,-0.3866774
45301.63,-17.8744,1.19084,-0.6870229,-0.5343512,0.06943433,-9.947065,-0.3878745
45477.25,-17.63285,1.083969,-0.5954198,-0.4580153,0.1065458,-9.911152,-0.3160459
45568.13,-17.63285,1.175573,-0.7633588,-0.4580153,0.1197144,-10.00812,-0.3423831
45786.38,-17.69324,1.114504,-0.6717557,-0.2748092,0.08140576,-10.01411,-0.3687202
45880.75,-17.33092,1.267176,-0.9465649,-0.5038168,0.03232288,-9.975798,-0.4034374
46083.63,-17.63285,0.8396947,-0.8091603,-0.4885496,0.09816577,-10.01051,-0.408226
46208.88,-17.33092,1.114504,-0.5648855,-0.5038168,0.1005601,-10.01411,-0.3304116
46412.25,-17.69324,0.8091603,-0.870229,-0.6412214,0.08619434,-10.01051,-0.3842831
46601.25,-17.63285,1.496183,-0.7633588,-0.4274809,0.04549145,-9.993754,-0.3363973
46693.63,-17.45169,1.145038,-0.6412214,-0.4122137,0.09816577,-9.961432,-0.3459745
46911.88,-17.3913,0.6259542,-0.9007633,-0.6259542,0.0466886,-10.03326,-0.3675231
47006.25,-17.45169,1.251908,-0.5648855,-0.3969466,0.09218005,-10.07516,-0.2980888
47208.63,-17.69324,1.083969,-0.8244275,-0.5038168,0.0466886,-10.00453,-0.399846
47334.38,-17.75362,0.961832,-0.7022901,-0.3053435,0.1149258,-10.03326,-0.3040745
47552.63,-17.33092,1.312977,-0.7328244,-0.5496183,0.02394287,-9.971008,-0.4046345
47724.75,-17.3913,1.51145,-0.7633588,-0.6564885,0.05626575,-9.9327,-0.3735088
47818.63,-17.69324,0.961832,-0.7328244,-0.4122137,0.08619434,-10.01411,-0.4046345
48038.88,-17.27053,1.068702,-0.9465649,-0.5038168,0.07901148,-9.961432,-0.3878745
48223.88,-17.33092,1.29771,-0.778626,-0.5801527,0.06225146,-10.04882,-0.3100602
48318.25,-17.33092,0.961832,-0.7022901,-0.5801527,0.05387146,-10.05361,-0.3806916
48521.63,-17.3913,1.465649,-0.7175573,-0.5954198,0.0550686,-10.00213,-0.3663259
48646.88,-17.3913,1.465649,-0.6717557,-0.5496183,0.1161229,-9.992558,-0.3340031
48835.38,-17.3913,1.007634,-0.7938932,-0.4274809,0.09696863,-9.91594,-0.3052716
49038.25,-17.51208,0.9770992,-0.778626,-0.4732825,0.1161229,-10.00213,-0.3711145
49228.75,-17.69324,0.9923664,-0.7175573,-0.3969466,0.07182861,-10.00333,-0.3471716
49322.13,-17.33092,1.175573,-0.5954198,-0.3969466,0.07661719,-10.05241,-0.3986488
49537.88,-17.3913,1.51145,-0.7175573,-0.6870229,0.08380005,-9.99136,-0.3591431
49631.75,-17.3913,1.160305,-0.7938932,-0.5801527,0.08140576,-10.04164,-0.317243
49835.13,-17.27053,1.618321,-0.9160305,-0.5648855,0.06823719,-10.0153,-0.3854802
49961.88,-17.69324,1.251908,-0.778626,-0.4732825,0.04549145,-9.960235,-0.4213945
50162.75,-17.3913,0.8854962,-0.8854962,-0.4122137,0.08858863,-9.9746,-0.3699174
50352.75,-17.27053,1.007634,-0.7633588,-0.4732825,0.03711145,-9.965023,-0.325623
50490.88,-17.45169,1.19084,-0.9465649,-0.4885496,-0.003591431,-10.04164,-0.4561117
50678.88,-17.51208,1.312977,-0.8091603,-0.5648855,0.08380005,-10.06678,-0.3759031
50772.75,-17.45169,1.374046,-0.7633588,-0.4580153,0.05387146,-10.0596,-0.4178031
50990.5,-17.3913,1.053435,-0.9770992,-0.6259542,0.0933772,-9.969811,-0.3399888
51085.88,-17.33092,1.557252,-0.7175573,-0.3969466,0.07063147,-10.00094,-0.3830859
51287.75,-17.63285,1.038168,-0.778626,-0.7022901,0.04908289,-9.954248,-0.3938602
51414.5,-17.3913,1.267176,-0.6412214,-0.4580153,0.08140576,-10.00692,-0.3675231
51615.38,-17.3913,1.038168,-0.778626,-0.3664122,0.05028003,-9.987769,-0.3890716
51802.88,-17.33092,1.099237,-0.6870229,-0.519084,0.1173201,-9.997346,-0.3435802
51899.75,-17.14976,1.755725,-0.6412214,-0.5343512,0.06823719,-9.992558,-0.3471716
52115.5,-17.75362,1.374046,-0.610687,-0.3969466,0.05028003,-9.986571,-0.3603402
52303,-17.33092,0.8854962,-0.870229,-0.5038168,0.1113344,-9.987769,-0.3447773
52397.88,-17.45169,1.587786,-0.9465649,-0.351145,0.06225146,-9.993754,-0.4022402
52599.25,-17.45169,1.175573,-0.9160305,-0.5496183,0.01197144,-9.972206,-0.3435802
52727,-17.45169,1.557252,-0.8549618,-0.5648855,0.03711145,-10.02368,-0.4273803
52943.75,-17.27053,0.7022901,-0.7328244,-0.4580153,0.07781433,-9.990163,-0.3938602
53115.88,-17.75362,0.6412214,-0.6564885,-0.4122137,0.04908289,-9.994951,-0.4261831
53212.25,-17.33092,0.8091603,-0.8091603,-0.4580153,0.0191543,-10.02488,-0.3387916
53428,-17.3913,0.8396947,-0.8549618,-0.4580153,0.04429431,-10.0153,-0.3890716
53521.88,-17.27053,0.8549618,-0.6870229,-0.4580153,0.09696863,-10.00932,-0.3064688
53724.75,-17.14976,1.343511,-0.7175573,-0.2900763,0.06704004,-9.998543,-0.399846
53851.5,-17.45169,1.557252,-0.870229,-0.519084,0.08858863,-10.03087,-0.3854802
54052.88,-17.27053,1.022901,-0.7938932,-0.5343512,0.1149258,-9.959037,-0.3328059
54243.38,-17.45169,1.435115,-0.610687,-0.4580153,0.1400658,-9.972206,-0.3711145
54428.88,-17.45169,0.5038168,-0.7938932,-0.351145,0.09696863,-10.02368,-0.3723117
54522.25,-17.51208,1.175573,-0.8396947,-0.5038168,0.1676001,-9.969811,-0.3184402
54741,-17.27053,1.038168,-0.7938932,-0.610687,0.05626575,-10.09312,-0.3579459
54835.38,-17.33092,1.083969,-0.7480916,-0.3358779,0.1125315,-9.969811,-0.3603402
55053.13,-17.21015,0.5648855,-0.9007633,-0.6564885,0.1149258,-10.02129,-0.3926631
55163,-17.63285,1.068702,-0.7480916,-0.4580153,0.04549145,-10.02129,-0.3890716
55350.5,-17.45169,1.374046,-0.9160305,-0.4732825,0.02992859,-9.959037,-0.3136516
55554.38,-17.3913,1.19084,-0.8549618,-0.5496183,0.06464575,-9.948263,-0.3447773
55679.63,-17.33092,1.633588,-0.6564885,-0.4732825,0.06105432,-9.979388,-0.3016802
55882,-17.51208,1.725191,-0.5954198,-0.6412214,0.03232288,-9.963826,-0.3519602
56084.88,-17.14976,1.206107,-0.5954198,-0.610687,0.09218005,-10.05481,-0.3459745
56163.88,-17.21015,1.038168,-0.9465649,-0.4427481,0.06464575,-9.978191,-0.3567488
56382.13,-17.3913,1.175573,-0.7328244,-0.3816794,0.07901148,-10.02608,-0.3735088
56476,-17.51208,1.282443,-0.778626,-0.4122137,0.02633716,-9.953052,-0.3352002
56678.88,-17.45169,1.343511,-0.7480916,-0.5801527,0.1065458,-9.960235,-0.3363973
56803.63,-17.14976,1.29771,-0.9465649,-0.6717557,0.0466886,-9.95784,-0.3232287
57006.5,-17.33092,1.343511,-0.7938932,-0.5954198,0.05746289,-9.990163,-0.3268202
57194.5,-17.33092,0.9465649,-0.778626,-0.4580153,0.08978577,-9.973403,-0.3818888
57288.38,-17.27053,0.6717557,-0.7328244,-0.3816794,0.02873144,-9.998543,-0.3268202
57507.13,-17.33092,0.9160305,-0.778626,-0.610687,0.07781433,-9.931503,-0.3639316
57695.13,-17.27053,1.557252,-0.610687,-0.778626,0.05985718,-9.998543,-0.3615374
57789.5,-17.14976,1.083969,-0.7328244,-0.6717557,0.03950574,-9.990163,-0.3806916
58008.25,-17.14976,1.374046,-0.7938932,-0.351145,0.06823719,-10.01051,-0.3615374
58118.13,-17.27053,1.145038,-0.7938932,-0.8549618,0.08858863,-9.959037,-0.3483688
58336.38,-17.27053,0.9007633,-0.6412214,-0.7175573,0.1149258,-10.0584,-0.3687202
58509,-17.51208,0.9312977,-0.6717557,-0.519084,0.1268972,-9.980586,-0.3340031
58602.88,-17.45169,1.29771,-0.9160305,-0.3969466,0.0550686,-9.992558,-0.3902688
58821.63,-17.33092,0.961832,-0.6259542,-0.6259542,0.1520372,-9.988966,-0.4178031
58917,-17.27053,1.19084,-0.8396947,-0.3206107,0.06344861,-9.993754,-0.3771002
59118.38,-17.27053,1.419847,-0.778626,-0.519084,0.01556287,-10.03087,-0.3723117
59243.63,-17.45169,1.221374,-0.6564885,-0.519084,0.03232288,-10.02249,-0.3627345
59462.38,-17.27053,1.328244,-0.778626,-0.4580153,0.09816577,-10.01171,-0.4034374
59635,-17.27053,1.709924,-0.8854962,-0.6717557,0.07901148,-10.02488,-0.3340031
59731.88,-17.14976,0.7633588,-0.8549618,-0.5954198,0.1352772,-9.948263,-0.3842831
59947.13,-17.14976,1.694656,-0.6412214,-0.351145,0.06464575,-9.979388,-0.3519602
60134.63,-17.21015,1.19084,-0.8244275,-0.5801527,0.07542004,-9.986571,-0.3112573
60230.5,-17.33092,0.9160305,-0.7328244,-0.4580153,0.09457434,-9.979388,-0.399846
60431.88,-17.51208,1.267176,-0.9007633,-0.4274809,0.03232288,-9.947065,-0.3555516
60559.63,-17.3913,1.114504,-0.7633588,-0.4274809,0.07063147,-10.00573,-0.3723117
60760,-17.27053,1.572519,-0.9160305,-0.5343512,0.07063147,-9.969811,-0.3064688
60947,-17.27053,0.778626,-0.8244275,-0.4885496,0.1233058,-9.938685,-0.3220316
61040.88,-17.14976,1.083969,-0.961832,-0.4885496,0.07661719,-10.03206,-0.3735088
61259.63,-17.27053,1.51145,-0.5648855,-0.610687,0.03950574,-10.01291,-0.3579459
61354.5,-17.27053,0.961832,-0.778626,-0.4122137,0.03352002,-10.00812,-0.2956945
61556.38,-17.45169,1.694656,-0.8854962,-0.5954198,0.07542004,-10.05002,-0.3519602
61681.63,-17.14976,0.7633588,-0.610687,-0.519084,0.1149258,-10.00333,-0.3543545
61884.5,-17.33092,1.236641,-0.8396947,-0.4885496,0.06464575,-9.992558,-0.3663259
62072.5,-17.27053,0.9160305,-0.7480916,-0.2900763,0.05866003,-10.02608,-0.3124545
62166.38,-17.3913,1.328244,-0.870229,-0.6259542,0.04070288,-9.984178,-0.3830859
62384.63,-17.14976,1.099237,-0.8244275,-0.3206107,0.04190002,-10.04284,-0.3687202
62572.13,-17.27053,1.068702,-0.6870229,-0.6717557,0.0550686,-10.0584,-0.4213945
62667.5,-17.33092,1.160305,-0.8244275,-0.4122137,0.09218005,-9.963826,-0.3543545
62869.88,-17.14976,1.374046,-0.7175573,-0.610687,0.0826029,-10.01291,-0.3423831
62994.13,-17.14976,1.282443,-0.8091603,-0.7022901,0.1053486,-9.997346,-0.4154088
63197,-17.14976,1.19084,-0.8244275,-0.5038168,0.0658429,-10.02009,-0.3352002
63385,-17.27053,1.038168,-0.778626,-0.5038168,0.08499719,-9.963826,-0.3352002
63480.88,-17.45169,0.8091603,-0.7022901,-0.2290076,0.03232288,-10.03805,-0.4166059
63697.13,-17.33092,1.648855,-1.145038,-0.5038168,0.01316858,-9.906363,-0.3687202
63792,-17.14976,1.648855,-0.8549618,-0.5954198,0.08499719,-10.03565,-0.3435802
63993.38,-17.27053,0.8244275,-0.9160305,-0.3358779,0.05267432,-10.03326,-0.3447773
64118.63,-17.33092,1.358779,-0.7175573,-0.6717557,0.1209115,-10.00333,-0.3483688
64322,-17.33092,1.312977,-0.7938932,-0.5038168,0.0826029,-10.06798,-0.3591431
64509.5,-17.27053,1.129771,-0.6412214,-0.610687,0.07661719,-10.01411,-0.3543545
64618.25,-17.3913,1.206107,-0.7633588,-0.4427481,0.07063147,-9.973403,-0.3328059
64821.63,-17.27053,1.374046,-0.7328244,-0.5954198,0.09816577,-10.0153,-0.3938602
64916,-17.33092,1.129771,-0.6412214,-0.519084,0.08739148,-10.02129,-0.3986488
65118.88,-17.51208,1.19084,-0.5496183,-0.5648855,0.04429431,-10.04763,-0.3747059
65246.13,-17.45169,0.8549618,-0.8854962,-0.3053435,0.07781433,-9.972206,-0.3747059
65447,-17.14976,1.022901,-0.9312977,-0.5038168,0.0191543,-9.985374,-0.3890716
65635,-17.14976,1.19084,-0.7328244,-0.6870229,0.1089401,-9.94946,-0.3699174
65728.88,-17.33092,1.587786,-0.6564885,-0.5648855,0.05626575,-10.03206,-0.4034374
65947.63,-17.27053,1.374046,-0.8549618,-0.7175573,0.06464575,-10.00333,-0.3663259
66135.13,-17.02899,1.19084,-0.6412214,-0.4122137,0.1328829,-10.06079,-0.3471716
66230,-17.27053,0.6717557,-0.7938932,-0.259542,0.07901148,-10.02608,-0.3962545
66432.38,-17.14976,1.480916,-0.7938932,-0.5954198,0.1053486,-10.05002,-0.3866774
66558.63,-17.3913,1.40458,-0.7938932,-0.4122137,0.1065458,-10.0165,-0.2968916
66761,-17.27053,1.78626,-1.007634,-0.5954198,0.07182861,-9.992558,-0.3723117
66948.5,-17.27053,0.9160305,-0.8244275,-0.351145,0.08020861,-10.0153,-0.3603402
67044.88,-17.27053,1.19084,-1.022901,-0.2900763,0.0275343,-10.06558,-0.4237888
67260.63,-17.14976,1.312977,-0.7328244,-0.4122137,0.07661719,-9.99974,-0.3363973
67356.5,-16.9686,0.870229,-0.9160305,-0.5343512,0.1077429,-10.06079,-0.3028773
67557.88,-17.02899,1.175573,-0.7633588,-0.6564885,0.1101372,-9.994951,-0.3687202
67683.13,-16.90821,1.19084,-0.6412214,-0.4274809,0.1125315,-10.0165,-0.3663259
67870.63,-17.02899,0.9160305,-0.8854962,-0.5648855,0.1245029,-9.978191,-0.3124545
68058.13,-16.9686,1.374046,-0.870229,-0.610687,0.1065458,-10.0153,-0.3399888
68261,-17.14976,1.129771,-0.6717557,-0.4274809,0.06464575,-9.99136,-0.399846
68452,-16.90821,1.343511,-0.8396947,-0.7938932,0.04070288,-9.986571,-0.3747059
68542.38,-17.14976,1.29771,-0.7633588,-0.5343512,0.1316858,-9.981783,-0.3304116
68760.63,-17.14976,1.19084,-0.7022901,-0.519084,0.09696863,-9.993754,-0.3735088
68948.13,-17.02899,1.175573,-0.7938932,-0.5343512,0.09098291,-9.948263,-0.3962545
69042.5,-17.33092,0.9160305,-0.7328244,-0.3969466,0.1101372,-10.09671,-0.3782974
69247.38,-16.84783,1.480916,-0.8091603,-0.5801527,0.01676001,-10.04643,-0.4094231
69401.38,-16.90821,1.068702,-0.778626,-0.5496183,0.08020861,-9.979388,-0.3184402
69573.5,-17.02899,1.328244,-0.9160305,-0.351145,-0.003591431,-9.967417,-0.4010431
69667.38,-17.14976,0.870229,-0.7175573,-0.5038168,0.09696863,-10.00692,-0.3244259
69885.63,-16.9686,0.9160305,-0.7022901,-0.6412214,0.02514002,-9.985374,-0.3316088
69982.5,-17.14976,1.358779,-0.7633588,-0.5496183,0.1077429,-9.965023,-0.3531573
70197.75,-17.14976,1.709924,-0.7480916,-0.5801527,0.04788574,-9.921926,-0.317243
70307.13,-17.02899,1.51145,-0.7022901,-0.4580153,0.0742229,-9.98298,-0.3651288
70510.5,-17.14976,1.038168,-0.8244275,-0.5496183,0.08739148,-9.91594,-0.317243
70698.5,-17.14976,1.465649,-0.961832,-0.3664122,0.06344861,-10.03685,-0.3435802
70791.88,-16.9686,0.9923664,-0.8854962,-0.4580153,0.09457434,-9.997346,-0.3747059
71010.13,-17.02899,1.312977,-0.5801527,-0.3206107,0.08020861,-9.931503,-0.3591431
71104.5,-16.9686,1.221374,-0.778626,-0.3969466,0.1197144,-10.01051,-0.3842831
71333.25,-16.90821,1.40458,-0.610687,-0.5954198,0.05866003,-10.01291,-0.3627345
71489.88,-17.14976,0.8549618,-0.7633588,-0.2137405,0.05746289,-10.0153,-0.3531573
71616.63,-16.9686,0.870229,-0.6412214,-0.3664122,0.0658429,-10.0596,-0.3902688
71818,-16.9686,0.8854962,-0.870229,-0.610687,0.09457434,-9.951855,-0.2992859
72021.38,-17.14976,1.19084,-0.6870229,-0.351145,0.1149258,-9.978191,-0.325623
72085.88,-17.02899,1.114504,-0.8091603,-0.4732825,0.06704004,-9.968615,-0.3782974
72318.13,-16.9686,1.480916,-0.8091603,-0.4427481,0.01795715,-9.99974,-0.3411859
72414,-16.9686,0.7938932,-0.8091603,-0.4885496,0.08619434,-9.993754,-0.4429431
72616.88,-16.90821,0.961832,-0.7938932,-0.5496183,0.06225146,-10.00333,-0.3519602
72742.13,-16.84783,1.40458,-0.8244275,-0.5954198,0.02873144,-10.01051,-0.3687202
72943,-16.78744,1.236641,-0.5954198,-0.4885496,0.09457434,-10.02967,-0.3459745
73131.5,-17.14976,1.29771,-0.6259542,-0.519084,0.1628115,-9.984178,-0.3208345
73224.88,-17.14976,1.083969,-0.7938932,-0.6717557,0.08858863,-9.954248,-0.3782974
73444.13,-17.02899,0.9312977,-0.8244275,-0.5343512,0.08619434,-10.03805,-0.2861173
73630.63,-17.27053,0.6870229,-0.8854962,-0.6564885,0.008380005,-9.94108,-0.4381545
73725,-17.14976,1.19084,-0.8549618,-0.6717557,0.05866003,-10.00692,-0.2813287
73927.38,-17.02899,1.312977,-0.6870229,-0.4885496,0.1161229,-10.02727,-0.3471716
74054.63,-16.90821,1.236641,-0.7022901,-0.5954198,0.05866003,-9.953052,-0.3639316
74256,-17.14976,0.9312977,-0.7175573,-0.4580153,0.06704004,-10.0153,-0.3651288
74444,-17.14976,1.419847,-0.8244275,-0.3969466,0.04190002,-9.876434,-0.3304116
74540.38,-16.9686,0.4427481,-0.9160305,-0.5801527,0.05147717,-9.94946,-0.3507631
74756.13,-17.14976,0.8549618,-0.7938932,-0.5496183,0.04788574,-9.985374,-0.3352002
74850,-17.27053,1.19084,-0.9923664,-0.3206107,0.1197144,-9.997346,-0.3830859
75052.88,-16.9686,1.374046,-0.6564885,-0.5343512,0.09457434,-10.04523,-0.3423831
75178.63,-17.14976,1.496183,-0.6259542,-0.4427481,0.06704004,-10.02368,-0.3950574
75381,-16.90821,1.343511,-0.7633588,-0.5954198,0.09577148,-10.02129,-0.4190002
75568.5,-17.14976,1.068702,-0.5801527,-0.7633588,0.04908289,-10.01889,-0.2944973
75664.88,-16.9686,0.778626,-0.7633588,-0.4885496,0.0550686,-10.02488,-0.317243
75880.63,-17.14976,1.358779,-0.778626,-0.5801527,0.0275343,-9.987769,-0.433366
76068.13,-17.02899,0.9007633,-0.8854962,-0.5496183,0.1520372,-9.9327,-0.3435802
76162.5,-16.72705,1.587786,-0.8244275,-0.519084,0.05626575,-10.0596,-0.3280173
76365.38,-16.78744,0.9465649,-0.8244275,-0.4885496,0.05028003,-9.937489,-0.3926631
76490.63,-16.90821,0.8549618,-0.6870229,-0.4580153,-0.03950574,-9.98298,-0.4046345
76693.5,-16.9686,1.679389,-0.870229,-0.5038168,0.0658429,-10.06079,-0.3830859
76882,-16.72705,1.603053,-0.7175573,-0.5343512,0.09696863,-9.938685,-0.3244259
76978.38,-16.84783,0.9770992,-0.9007633,-0.4885496,0.09696863,-9.923123,-0.3220316
77193.63,-16.9686,0.9770992,-0.7175573,-0.6412214,-0.007182861,-10.02249,-0.3196373
77381.13,-17.14976,1.19084,-0.6259542,-0.5038168,0.05028003,-10.0177,-0.3675231
77475.5,-16.90821,1.328244,-0.5954198,-0.5801527,0.09577148,-10.05361,-0.3076659
77678.38,-16.84783,0.870229,-0.7175573,-0.3969466,0.06823719,-9.960235,-0.3352002
77804.13,-17.02899,1.465649,-0.7175573,-0.5038168,0.01436572,-10.01889,-0.3723117
78007,-16.9686,0.8854962,-0.778626,-0.351145,0.09098291,-10.04164,-0.4201974
78194.5,-16.9686,0.7175573,-0.8854962,-0.5038168,0.07542004,-9.953052,-0.3735088
78288.88,-16.90821,1.251908,-0.6564885,-0.5343512,0.05985718,-10.03087,-0.3591431
78506.63,-16.9686,0.9465649,-0.8091603,-0.6870229,0.05387146,-10.0153,-0.3208345
78694.13,-16.78744,1.068702,-0.7633588,-0.259542,0.07182861,-9.997346,-0.3735088
78790,-16.84783,0.9465649,-0.8396947,-0.7938932,0.05866003,-10.00213,-0.3603402
78993.88,-16.9686,1.29771,-0.6717557,-0.519084,0.04788574,-9.947065,-0.4178031
79147.88,-17.14976,1.603053,-0.7480916,-0.5038168,-0.001197144,-10.01291,-0.3639316
79320.5,-16.9686,1.267176,-0.8244275,-0.5496183,0.05147717,-9.953052,-0.3914659
79429.25,-16.90821,1.099237,-0.6412214,-0.8396947,0.06704004,-9.937489,-0.3591431
79632.63,-16.72705,1.221374,-0.7480916,-0.519084,0.07063147,-9.997346,-0.3866774
79820.13,-16.78744,1.236641,-0.7480916,-0.5801527,0.0933772,-10.01411,-0.3399888
79915,-16.84783,1.465649,-0.7480916,-0.519084,0.1101372,-10.03087,-0.3830859
80117.88,-16.90821,1.160305,-0.9312977,-0.4732825,0.05985718,-10.00213,-0.4010431
80244.13,-16.9686,1.221374,-0.7175573,-0.3969466,0.08380005,-9.978191,-0.424986
80431.63,-16.9686,0.2748092,-0.7633588,-0.3053435,0.05387146,-9.965023,-0.3064688
80634,-16.72705,1.038168,-0.8854962,-0.5343512,0.03112573,-10.07875,-0.3782974
80824,-16.90821,1.267176,-0.6870229,-0.5801527,0.07901148,-9.969811,-0.3328059
80917.88,-16.72705,0.9465649,-0.8091603,-0.3053435,0.0466886,-10.00812,-0.3136516
81134.13,-16.78744,1.251908,-0.778626,-0.4885496,0.05626575,-10.00094,-0.3687202
81320.63,-16.90821,1.435115,-0.6412214,-0.5343512,0.04070288,-9.931503,-0.3471716
81416,-16.72705,0.7480916,-0.7480916,-0.4427481,0.02394287,-10.04403,-0.3675231
81617.38,-16.84783,1.389313,-0.961832,-0.5343512,0.08619434,-9.963826,-0.399846
81744.13,-16.78744,0.961832,-0.8854962,-0.5038168,0.03711145,-10.01889,-0.3328059
81946.5,-16.84783,1.068702,-0.6870229,-0.3664122,0.08858863,-9.951855,-0.3543545
82134.5,-16.78744,1.450382,-0.7633588,-0.3664122,0.04309717,-9.99136,-0.4237888
82227.88,-16.9686,1.328244,-0.7633588,-0.3206107,0.0826029,-9.944672,-0.3806916
82448.13,-16.90821,1.099237,-0.7480916,-0.4885496,-0.01556287,-9.948263,-0.3184402
82634.13,-16.72705,1.221374,-0.870229,-0.3816794,0.08619434,-10.02249,-0.3914659
82728.5,-16.72705,1.114504,-0.7480916,-0.4885496,0.1209115,-10.02368,-0.3555516
82930.88,-16.90821,0.5343512,-0.610687,-0.610687,0.05985718,-9.979388,-0.3950574
83056.63,-16.72705,1.465649,-0.7633588,-0.3664122,0.05028003,-9.996149,-0.3316088
83245.13,-16.66667,1.083969,-0.7480916,-0.5648855,0.08140576,-10.04044,-0.3639316
83462.38,-16.48551,0.8549618,-0.6259542,-0.4274809,-0.01197144,-10.00213,-0.3100602
83649.88,-16.9686,1.282443,-0.7480916,-0.3206107,0.0742229,-10.03805,-0.3759031
83728.38,-16.9686,1.129771,-0.961832,-0.5954198,0.09218005,-10.00213,-0.3316088
83948.63,-16.84783,1.221374,-0.8244275,-0.4274809,0.1376715,-9.990163,-0.3363973
84134.63,-16.78744,1.51145,-1.053435,-0.4427481,0.03232288,-10.01051,-0.3208345
84228.5,-16.90821,1.450382,-0.778626,-0.6564885,0.07781433,-10.02967,-0.3340031
84431.38,-16.84783,0.6870229,-0.5343512,-0.3969466,0.0826029,-10.01411,-0.3280173
84557.63,-16.54589,1.328244,-1.022901,-0.4427481,-0.0191543,-9.973403,-0.3483688
84759,-16.84783,1.19084,-0.5496183,-0.5648855,0.1137286,-10.00213,-0.4046345
84947.5,-16.48551,1.221374,-0.7480916,-0.6564885,0.1101372,-9.986571,-0.3639316
85041.88,-17.02899,1.099237,-0.870229,-0.5648855,0.04309717,-10.03206,-0.3567488
85259.63,-16.66667,1.114504,-0.6717557,-0.4885496,0.03711145,-9.992558,-0.408226
85354.5,-16.72705,1.038168,-0.778626,-0.3816794,0.1017572,-9.996149,-0.3459745
85556.38,-16.72705,0.8091603,-0.7938932,-0.4732825,0.03591431,-9.986571,-0.3627345
85681.63,-16.48551,1.450382,-0.9160305,-0.4732825,0.04309717,-10.0177,-0.3962545
85871.63,-16.9686,1.282443,-0.4885496,-0.5648855,0.1304886,-10.06079,-0.3591431
86072.5,-16.78744,1.206107,-0.6412214,-0.5496183,0.09577148,-9.975798,-0.3459745
86260.5,-16.72705,1.450382,-0.870229,-0.5343512,0.02992859,-9.962628,-0.3316088
86354.38,-16.72705,0.9312977,-0.8244275,-0.3969466,0.1113344,-9.992558,-0.3220316
86572.63,-16.84783,1.114504,-0.7938932,-0.3816794,0.07901148,-10.05601,-0.3759031
86761.63,-16.72705,1.51145,-0.8854962,-0.4885496,0.09696863,-10.04164,-0.3495659
86854.5,-16.72705,0.8091603,-0.6564885,-0.3969466,0.1113344,-10.00692,-0.3794945
87072.75,-16.78744,1.389313,-0.870229,-0.5038168,0.0466886,-9.914742,-0.3711145
87182.63,-16.72705,1.389313,-0.7480916,-0.3969466,0.04190002,-10.06558,-0.3771002
87385.5,-16.90821,1.007634,-0.7633588,-0.519084,0.08619434,-10.04164,-0.3016802
87573.5,-16.66667,1.526718,-0.7633588,-0.6717557,0.06943433,-10.04882,-0.4381545
87667.38,-16.84783,1.358779,-0.6259542,-0.6870229,0.1041515,-9.967417,-0.325623
87886.13,-16.72705,1.358779,-0.7022901,-0.7633588,0.06344861,-9.973403,-0.4058317
88073.63,-17.02899,1.068702,-0.8549618,-0.5648855,0.09098291,-9.992558,-0.3914659
88168.5,-16.72705,0.9770992,-0.9312977,-0.4885496,0.1328829,-10.02608,-0.3782974
88371.38,-16.72705,1.19084,-0.7022901,-0.5801527,0.1101372,-9.979388,-0.3423831
88496.13,-16.90821,0.7938932,-0.8854962,-0.5801527,0.08380005,-9.979388,-0.3316088
88684.13,-16.66667,1.145038,-0.8244275,-0.5343512,0.08978577,-10.05481,-0.4046345
88902.88,-16.84783,1.389313,-0.7328244,-0.3969466,0.0466886,-10.06798,-0.3615374
89076,-16.84783,1.389313,-0.778626,-0.351145,0.01436572,-10.02967,-0.3699174
89168.88,-16.90821,0.9770992,-0.6259542,-0.3969466,0.06344861,-9.987769,-0.3519602
89387.13,-16.66667,1.068702,-0.610687,-0.5648855,0.0275343,-9.960235,-0.3854802
89574.63,-16.72705,1.221374,-0.7480916,-0.6564885,0.01197144,-10.03087,-0.3794945
89670.5,-16.66667,1.557252,-0.7633588,-0.4885496,0.08619434,-9.998543,-0.3375945
89887.25,-16.78744,1.007634,-0.7328244,-0.5954198,0.1161229,-9.985374,-0.3328059
90012.5,-16.72705,1.175573,-0.5801527,-0.351145,0.04549145,-9.930305,-0.3806916
90200,-16.90821,1.343511,-0.6259542,-0.4580153,0.002394287,-10.00932,-0.4118174
90388,-16.42512,1.053435,-0.7480916,-0.8091603,0.1077429,-9.953052,-0.4070288
90484.38,-16.54589,1.282443,-0.8854962,-0.5496183,0.1245029,-10.0153,-0.4046345
90701.13,-16.72705,1.022901,-0.6717557,-0.4274809,0.07542004,-10.03087,-0.3663259
90887.63,-16.66667,1.435115,-0.5038168,-0.4427481,-0.002394287,-10.05361,-0.3328059
90983,-16.36473,0.8244275,-0.8396947,-0.5801527,0.1029543,-9.99974,-0.3340031
91184.38,-16.84783,1.40458,-0.778626,-0.3969466,0.08499719,-9.961432,-0.3974517
91310.13,-16.66667,0.7938932,-0.9312977,-0.519084,0.07063147,-10.0177,-0.3411859
91512.5,-16.36473,1.114504,-0.778626,-0.5648855,0.05866003,-9.969811,-0.3495659
91699.5,-16.84783,1.435115,-0.8396947,-0.5038168,0.02035144,-10.00812,-0.4369574
91793.88,-16.84783,1.282443,-0.8854962,-0.519084,0.03471716,-10.04882,-0.3914659
92012.13,-16.72705,1.053435,-0.8244275,-0.4274809,0.04549145,-9.955446,-0.4046345
92106.5,-16.84783,1.29771,-0.778626,-0.4580153,0.02274573,-9.968615,-0.3579459
92296,-16.78744,1.083969,-0.6564885,-0.7480916,0.02154858,-9.950657,-0.4010431
92496.88,-16.78744,1.145038,-0.8549618,-0.519084,0.01077429,-9.987769,-0.3818888
92621.63,-16.48551,1.221374,-0.778626,-0.519084,0.03591431,-10.02727,-0.4010431
92825,-16.66667,1.480916,-0.961832,-0.5343512,0.1017572,-10.00453,-0.3782974
92918.38,-16.66667,1.389313,-0.778626,-0.6259542,0.1005601,-9.960235,-0.3555516
93136.63,-16.72705,1.099237,-0.6412214,-0.6870229,0.02992859,-9.975798,-0.3639316
93231,-16.72705,1.465649,-0.610687,-0.4732825,0.1089401,-10.00453,-0.325623
93420,-16.66667,1.19084,-0.6412214,-0.259542,0.08619434,-9.944672,-0.4058317
93624.38,-16.72705,1.541985,-0.8244275,-0.5954198,0.05626575,-9.975798,-0.3340031
93746.63,-16.78744,1.389313,-0.7480916,-0.7022901,0.06464575,-10.09551,-0.3675231
93949,-16.66667,1.450382,-0.9312977,-0.6259542,0.02274573,-9.986571,-0.3555516
94137,-16.78744,1.053435,-0.6717557,-0.4580153,0.1041515,-9.95784,-0.4118174
94324.5,-16.90821,0.9923664,-0.6259542,-0.3816794,0.08380005,-9.98298,-0.3771002
94420.88,-16.48551,0.9770992,-0.870229,-0.3664122,0.0658429,-9.994951,-0.3519602
94636.13,-16.78744,1.358779,-0.7480916,-0.519084,0.1173201,-10.02368,-0.3399888
94731.5,-16.66667,1.358779,-0.8854962,-0.6259542,0.04788574,-9.975798,-0.3459745
94920,-16.72705,1.267176,-0.7328244,-0.5038168,0.1113344,-10.05002,-0.3711145
95121.38,-16.78744,0.8854962,-0.778626,-0.4732825,0.03471716,-9.954248,-0.3352002
95247.13,-16.66667,0.9465649,-0.6564885,-0.3206107,0.07302576,-9.990163,-0.3723117
95449.5,-16.84783,1.038168,-0.6870229,-0.5496183,0.06225146,-9.990163,-0.3687202
95639.5,-16.66667,1.358779,-0.6717557,-0.4885496,0.01795715,-10.01411,-0.3459745
95733.88,-16.36473,0.8854962,-0.870229,-0.7022901,0.03352002,-9.990163,-0.3519602
95949.63,-16.66667,0.9312977,-0.9007633,-0.5343512,0.09457434,-10.02129,-0.3399888
96044,-16.84783,1.083969,-0.7938932,-0.5648855,0.1065458,-10.03206,-0.3148488
96246.38,-16.66667,1.755725,-0.9465649,-0.7175573,0.03950574,-10.01051,-0.3076659
96372.13,-16.42512,0.9160305,-0.9160305,-0.5648855,0.09457434,-10.1003,-0.4369574
96574.5,-16.54589,1.526718,-0.7633588,-0.5648855,0.03711145,-10.00213,-0.3411859
96763,-16.78744,1.022901,-0.8091603,-0.4885496,0.06225146,-10.02727,-0.4034374
96858.38,-16.78744,1.328244,-0.7938932,-0.3664122,0.06704004,-9.972206,-0.3902688
97075.13,-16.66667,1.099237,-0.7175573,-0.519084,0.01556287,-9.921926,-0.3723117
97262.13,-16.72705,1.007634,-0.8091603,-0.2900763,0.05028003,-10.03206,-0.4034374
97358.5,-16.72705,1.19084,-0.6717557,-0.4274809,0.06704004,-10.0572,-0.3519602
97544,-16.66667,1.068702,-0.7175573,-0.610687,0.09457434,-10.06439,-0.3531573
97747.38,-16.42512,1.709924,-0.8854962,-0.5496183,0.06464575,-9.9746,-0.3902688
97887,-16.72705,1.358779,-0.8854962,-0.5343512,0.06823719,-9.926714,-0.3735088
98075.5,-16.78744,1.083969,-0.9160305,-0.3664122,0.08380005,-9.965023,-0.3615374
98169.38,-16.72705,1.114504,-0.9160305,-0.4885496,0.0658429,-10.06319,-0.2885116
98387.63,-16.72705,0.8854962,-0.6717557,-0.2748092,0.1436572,-9.961432,-0.4070288
98482.5,-16.66667,0.7633588,-0.5801527,-0.3053435,0.0466886,-10.01051,-0.3687202
98684.38,-16.54589,1.099237,-0.5954198,-0.4732825,0.1005601,-10.01171,-0.3543545
98810.13,-16.48551,1.19084,-0.6259542,-0.3053435,0.05866003,-9.927912,-0.3914659
99013,-16.54589,1.40458,-0.6870229,-0.610687,0.06943433,-10.01411,-0.3531573
99201,-16.36473,1.114504,-0.7480916,-0.3969466,0.1472487,-10.00213,-0.3387916
99309.75,-16.42512,1.282443,-0.778626,-0.6870229,0.06943433,-10.02249,-0.325623
99513.63,-16.48551,1.389313,-0.8396947,-0.519084,0.07182861,-9.980586,-0.3806916
99701.13,-16.42512,1.099237,-0.8396947,-0.5343512,0.02992859,-10.02608,-0.3759031
99795,-16.48551,1.129771,-0.6717557,-0.351145,0.0826029,-10.02488,-0.3794945
99997.88,-16.36473,1.160305,-0.7022901,-0.4427481,0.05028003,-9.969811,-0.3687202
100123.1,-16.48551,1.267176,-0.6259542,-0.519084,0.08380005,-10.0177,-0.3483688
100341.4,-16.42512,1.236641,-0.7022901,-0.5801527,0.05387146,-10.06319,-0.3735088
100515.5,-16.72705,1.175573,-0.7328244,-0.4885496,0.1077429,-10.03685,-0.3483688
100622.8,-16.66667,1.022901,-0.7328244,-0.5038168,0.08020861,-10.02847,-0.3495659
100825.6,-16.72705,0.8396947,-0.6564885,-0.3816794,0.1041515,-10.03326,-0.3986488
100921.5,-16.66667,0.778626,-0.778626,-0.5954198,0.05866003,-9.993754,-0.3543545
101138.3,-16.66667,0.9770992,-0.7633588,-0.4732825,0.07302576,-9.969811,-0.2944973
101248.1,-16.78744,1.068702,-0.7022901,-0.610687,0.06823719,-10.00692,-0.4309717
101450.5,-16.36473,0.870229,-0.8396947,-0.3816794,0.07063147,-9.963826,-0.308863
101639,-16.84783,0.961832,-0.8244275,-0.4885496,0.06344861,-9.972206,-0.3926631
101734.9,-16.66667,1.343511,-0.9465649,-0.6564885,0.09696863,-10.06917,-0.3759031
101950.6,-16.42512,1.541985,-0.870229,-0.2900763,0.0826029,-9.990163,-0.3064688
102138.6,-16.42512,0.961832,-0.7328244,-0.610687,0.04908289,-9.94108,-0.3519602
102232.5,-16.66667,0.961832,-0.8854962,-0.610687,0.09816577,-10.03087,-0.3387916
102437.9,-16.66667,0.5648855,-0.6259542,-0.5648855,0.1304886,-10.0153,-0.2980888
102561.6,-16.42512,1.129771,-0.961832,-0.4122137,0.05267432,-9.980586,-0.3962545
102763.5,-16.42512,1.526718,-0.778626,-0.3206107,0.1101372,-10.05241,-0.3687202
102951.5,-16.48551,0.9160305,-0.7480916,-0.4274809,0.0550686,-10.07037,-0.3555516
103140.5,-16.72705,1.19084,-0.9160305,-0.4580153,0.06943433,-10.05361,-0.3771002
103234.9,-16.72705,1.251908,-0.6564885,-0.6259542,0.05985718,-10.00812,-0.3471716
103451.1,-16.42512,1.419847,-0.5038168,-0.5343512,0.05267432,-9.948263,-0.3782974
103546.5,-16.66667,1.022901,-0.778626,-0.4580153,0.03352002,-10.01889,-0.3615374
103747.9,-16.42512,1.053435,-0.8396947,-0.6564885,0.09457434,-10.00573,-0.3663259
103873.6,-16.42512,1.435115,-0.7175573,-0.5648855,0.07661719,-10.02488,-0.3543545
104076,-16.36473,1.19084,-0.7480916,-0.5038168,0.07063147,-9.988966,-0.424986
104264,-16.54589,0.9465649,-0.5954198,-0.4885496,0.04908289,-9.996149,-0.3375945
104358.4,-16.48551,1.358779,-0.7022901,-0.4732825,0.01676001,-10.05361,-0.3890716
104576.1,-16.66667,1.236641,-0.8854962,-0.6870229,0.02514002,-9.981783,-0.3579459
104671.5,-16.36473,1.099237,-0.6412214,-0.610687,0.04190002,-9.979388,-0.325623
104888.8,-16.48551,1.022901,-0.9007633,-0.6412214,0.05267432,-10.04882,-0.3938602
104998.6,-16.66667,1.312977,-0.8244275,-0.6564885,0.03591431,-10.00692,-0.3519602
105201.5,-16.66667,1.19084,-0.8091603,-0.5648855,0.08978577,-10.00573,-0.3495659
105389.5,-16.42512,1.038168,-0.7175573,-0.519084,0.07542004,-10.00932,-0.4106202
105485.9,-16.42512,1.389313,-0.778626,-0.3358779,0.04908289,-10.02129,-0.3962545
105701.6,-16.42512,1.29771,-0.7480916,-0.610687,0.09098291,-10.02488,-0.3699174
105797.5,-16.48551,1.419847,-0.7175573,-0.5801527,0.1173201,-10.01889,-0.3483688
105998.9,-16.42512,1.648855,-0.7328244,-0.3206107,0.06225146,-10.04643,-0.3519602
106125.6,-16.42512,1.541985,-0.7480916,-0.5038168,0.1376715,-10.00812,-0.3687202
106342.9,-16.36473,1.664122,-0.7938932,-0.5954198,0.05267432,-10.04523,-0.3902688
106515,-16.36473,0.7938932,-0.7175573,-0.4732825,0.08619434,-10.05601,-0.3447773
106608.9,-16.36473,1.19084,-0.8396947,-0.5496183,0.1113344,-9.973403,-0.3567488
106827.1,-16.48551,0.961832,-0.6717557,-0.6870229,0.08140576,-9.969811,-0.4046345
107014.6,-16.36473,1.19084,-0.7175573,-0.519084,0.08020861,-10.03685,-0.408226
107110.5,-16.42512,1.312977,-0.778626,-0.4122137,0.07302576,-9.968615,-0.4549145
107311.4,-16.42512,1.725191,-0.6259542,-0.5954198,0.06943433,-9.927912,-0.3687202
107437.6,-16.36473,0.8854962,-1.007634,-0.4732825,0.08380005,-9.987769,-0.4130145
107655.4,-16.48551,1.465649,-1.022901,-0.6717557,0.02035144,-9.975798,-0.3316088
107827.5,-16.36473,1.022901,-0.8396947,-0.5801527,0.1005601,-10.05122,-0.3268202
107923.4,-16.48551,0.9923664,-0.778626,-0.5954198,0.03711145,-9.992558,-0.3411859
108140.6,-16.24396,1.083969,-0.7938932,-0.6870229,0.07781433,-9.998543,-0.3268202
108327.6,-16.36473,0.6564885,-0.6717557,-0.610687,0.03112573,-9.967417,-0.3543545
108421.5,-16.42512,1.450382,-0.8854962,-0.4427481,0.07901148,-9.99974,-0.3471716
108627.4,-16.48551,0.8396947,-0.5954198,-0.5801527,0.1340801,-9.942277,-0.3782974
108749.6,-16.30435,1.343511,-0.8091603,-0.7328244,0.0275343,-9.95784,-0.3711145
108938.6,-16.36473,0.7938932,-0.7328244,-0.7022901,0.06225146,-10.02368,-0.2777373
109125.1,-16.48551,1.526718,-0.778626,-0.5648855,0.07302576,-9.992558,-0.3519602
109328,-16.36473,0.4580153,-0.9007633,-0.5343512,0.06823719,-10.07396,-0.3459745
109518.5,-16.18357,1.038168,-0.7938932,-0.6717557,0.1616144,-9.95784,-0.4166059
109609.4,-16.36473,1.129771,-0.9312977,-0.5496183,0.1029543,-9.978191,-0.3352002
109828.1,-16.24396,0.9770992,-0.8854962,-0.4580153,0.008380005,-10.03087,-0.3447773
110015.6,-16.30435,1.206107,-0.9312977,-0.519084,0.1065458,-9.947065,-0.3663259
110109.5,-16.66667,1.51145,-0.7480916,-0.2748092,0.1328829,-10.00932,-0.3627345
110312.4,-16.48551,1.267176,-0.8854962,-0.5801527,0.1316858,-9.99136,-0.4118174
110437.6,-16.48551,0.8854962,-0.8244275,-0.4427481,0.08739148,-10.01171,-0.4022402
110640.5,-16.66667,1.083969,-0.7022901,-0.5496183,0.1149258,-10.00333,-0.3579459
110831,-16.42512,1.114504,-0.8396947,-0.6564885,0.1221086,-10.01411,-0.3411859
110924.4,-16.42512,0.961832,-0.7175573,-0.3664122,0.0191543,-10.00094,-0.3543545
111141.1,-16.66667,0.8244275,-0.7938932,-0.4580153,0.1101372,-9.985374,-0.3495659
111329.1,-16.30435,1.114504,-0.8091603,-0.6870229,0.03232288,-9.961432,-0.4213945
111423.5,-16.48551,1.175573,-0.7480916,-0.4885496,0.07901148,-10.03206,-0.3555516
111627.4,-16.42512,1.29771,-0.4885496,-0.5648855,0.09816577,-9.984178,-0.3483688
111753.1,-16.36473,1.251908,-1.038168,-0.610687,0.03352002,-10.02129,-0.3854802
111939.1,-16.42512,0.961832,-0.6259542,-0.5954198,0.0466886,-9.967417,-0.3771002
112142,-16.30435,1.465649,-0.961832,-0.5954198,0.1161229,-9.984178,-0.3148488
112282.1,-16.48551,1.251908,-0.6412214,-0.6564885,0.1221086,-10.02847,-0.3723117
112470.1,-16.30435,0.7022901,-0.961832,-0.3664122,0.07063147,-9.98298,-0.3100602
112566,-16.42512,1.541985,-1.053435,-0.4122137,0.0933772,-10.04044,-0.3627345
112781.8,-16.42512,0.778626,-0.6870229,-0.5954198,0.06704004,-9.968615,-0.3723117
112970.3,-16.30435,1.557252,-0.7633588,-0.2748092,0.06823719,-9.98298,-0.3076659
113141.3,-16.42512,0.961832,-0.8244275,-0.5496183,0.09936292,-10.02847,-0.3567488
113222.8,-16.42512,1.358779,-0.5648855,-0.6717557,0.07661719,-10.01171,-0.3651288
113392.3,-16.30435,1.312977,-0.9923664,-0.5801527,0.07901148,-9.99136,-0.3387916
113598.1,-16.42512,0.7938932,-0.6564885,-0.6564885,0.05387146,-10.02608,-0.3663259
113735.8,-16.36473,0.961832,-0.870229,-0.5648855,0.06105432,-9.9746,-0.3938602
113861,-16.18357,1.038168,-0.9770992,-0.5648855,0.02154858,-9.981783,-0.3016802
114079.3,-16.48551,1.221374,-0.778626,-0.5954198,0.003591431,-10.04284,-0.3543545
114251.9,-16.24396,1.374046,-0.6717557,-0.4885496,0.05267432,-9.956643,-0.3519602
114438.9,-16.48551,0.9312977,-0.8244275,-0.4732825,0.02992859,-9.955446,-0.3854802
114533.3,-16.36473,1.038168,-0.6870229,-0.5343512,0.08978577,-10.01291,-0.3759031
114751.5,-16.30435,0.8396947,-0.5496183,-0.5496183,0.05985718,-10.05241,-0.3232287
114847.9,-16.24396,1.435115,-0.8396947,-0.5038168,0.08140576,-10.00213,-0.3471716
115048.8,-16.36473,1.099237,-0.778626,-0.5648855,0.03591431,-9.986571,-0.3639316
115173,-16.36473,1.374046,-0.6717557,-0.3969466,0.07901148,-10.05122,-0.3579459
115361,-16.30435,1.465649,-0.9007633,-0.6717557,0.02873144,-9.961432,-0.3519602
115563.9,-16.24396,1.496183,-0.5954198,-0.4274809,0.1268972,-10.02129,-0.3759031
115752.4,-16.66667,1.160305,-0.8091603,-0.5954198,0.06464575,-9.981783,-0.4118174
115845.8,-16.30435,1.419847,-0.8396947,-0.5496183,0.05028003,-9.965023,-0.3328059
116064,-16.36473,1.267176,-0.9007633,-0.7480916,0.05387146,-9.953052,-0.3938602
116157.9,-16.42512,1.251908,-0.7175573,-0.5496183,0.1328829,-10.0153,-0.3926631
116360.8,-16.36473,1.19084,-0.8396947,-0.3816794,0.1065458,-10.02488,-0.3926631
116486,-16.48551,1.221374,-0.8244275,-0.519084,0.0742229,-10.03326,-0.3543545
116688.9,-16.18357,1.221374,-0.8549618,-0.5038168,0.09218005,-9.981783,-0.4130145
116877.4,-16.36473,1.328244,-0.6870229,-0.778626,0.1065458,-10.00213,-0.3806916
116973.3,-16.18357,1.343511,-0.9465649,-0.6564885,0.1089401,-9.984178,-0.4094231
117188.5,-16.36473,1.267176,-0.7633588,-0.7022901,0.05985718,-10.06199,-0.399846
117376.5,-16.36473,1.51145,-0.7022901,-0.5496183,0.1233058,-9.929109,-0.3842831
117471.4,-16.0628,1.175573,-0.9007633,-0.5954198,0.07661719,-10.02368,-0.3280173
117673.3,-16.42512,1.709924,-0.6870229,-0.7480916,0.01436572,-10.06079,-0.3759031
117798.5,-16.42512,1.221374,-0.7480916,-0.6870229,0.1161229,-10.04284,-0.3124545
118001.4,-16.30435,1.358779,-0.9007633,-0.5038168,0.1376715,-10.0165,-0.3507631
118189.4,-16.42512,1.221374,-1.114504,-0.7480916,0.07542004,-9.987769,-0.4273803
118282.8,-16.42512,0.778626,-0.7633588,-0.5648855,0.03471716,-10.00932,-0.4094231
118501.5,-16.24396,1.053435,-0.7480916,-0.2442748,0.03232288,-10.02967,-0.3603402
118595.4,-16.00242,0.9770992,-0.6870229,-0.5954198,0.001197144,-9.985374,-0.2525973
118798.3,-16.18357,1.19084,-0.6564885,-0.4885496,0.0275343,-10.03925,-0.3495659
118924,-16.24396,1.29771,-0.870229,-0.4885496,0.02274573,-10.02129,-0.3830859
119126.9,-16.18357,1.740458,-0.8396947,-0.610687,0.09098291,-9.95784,-0.3735088
119315.9,-16.0628,0.961832,-0.778626,-0.7022901,0,-10.05361,-0.3567488
119408.3,-16.48551,0.9160305,-0.6412214,-0.4122137,0.01436572,-9.985374,-0.433366
119628,-16.36473,1.083969,-0.7175573,-0.5496183,0.02035144,-10.00094,-0.3435802
119814.5,-16.36473,1.206107,-0.870229,-0.5954198,0.0826029,-10.03446,-0.4022402
119908.9,-16.36473,1.343511,-0.8549618,-0.4427481,0.1508401,-10.06678,-0.3603402
120126.6,-16.30435,1.038168,-0.8091603,-0.2900763,0.1053486,-10.0584,-0.3519602
120236.5,-16.0628,1.312977,-1.053435,-0.6870229,0.009577149,-10.03925,-0.3328059
120439.4,-16.18357,1.053435,-0.6870229,-0.6259542,0.0191543,-10.00692,-0.3794945
120627.4,-16.24396,1.358779,-0.870229,-0.7480916,0.07182861,-10.00213,-0.4058317
120814.4,-16.24396,1.526718,-0.9770992,-0.5038168,0.08020861,-10.09791,-0.3232287
120908.3,-16.36473,1.206107,-1.038168,-0.6259542,0.08020861,-9.992558,-0.3208345
121126.5,-16.48551,1.160305,-0.8854962,-0.4580153,0.1687972,-10.0165,-0.3112573
121314,-16.18357,1.206107,-0.9007633,-0.5343512,0.0826029,-10.04882,-0.3842831
121407.9,-16.36473,1.419847,-0.9312977,-0.5038168,0.0550686,-10.00932,-0.3232287
121612.3,-16.24396,1.29771,-0.610687,-0.5801527,0.05746289,-10.01291,-0.3914659
121751.4,-16.30435,1.389313,-0.7633588,-0.259542,0.1029543,-9.997346,-0.3411859
121939.4,-16.18357,0.870229,-0.870229,-0.4732825,0.05387146,-10.01171,-0.3771002
122033.3,-16.0628,1.541985,-0.7328244,-0.519084,0.09816577,-9.944672,-0.3363973
122251,-16.30435,1.389313,-0.7328244,-0.3206107,0.04908289,-9.969811,-0.325623
122346.4,-16.24396,1.328244,-0.778626,-0.4427481,-0.008380005,-10.02009,-0.4070288
122563.6,-16.30435,1.206107,-0.6259542,-0.4732825,0.04429431,-9.997346,-0.4178031
122673,-16.0628,0.9312977,-1.038168,-0.519084,0.08619434,-9.948263,-0.3615374
122891.8,-16.0628,1.51145,-0.9007633,-0.351145,0.1005601,-10.02608,-0.3687202
123064.4,-16.0628,1.251908,-0.961832,-0.4580153,0.06225146,-9.950657,-0.399846
123161.3,-16.30435,0.8244275,-0.7328244,-0.6412214,0.09218005,-10.00094,-0.3914659
123376.5,-16.24396,0.9923664,-0.8549618,-0.5038168,0.08020861,-9.962628,-0.3914659
123470.9,-16.30435,1.114504,-0.5648855,-0.4732825,-0.01436572,-10.03087,-0.3663259
123673.3,-16.00242,1.145038,-0.4427481,-0.5343512,0.08499719,-9.993754,-0.3890716
123801.5,-16.36473,1.007634,-0.6717557,-0.4885496,0.06225146,-9.96622,-0.3962545
124001.9,-16.36473,1.175573,-0.8549618,-0.4274809,0.1005601,-10.02488,-0.3866774
124190.9,-15.82126,1.496183,-0.8244275,-0.4885496,0.1412629,-10.02967,-0.3471716
124284.3,-16.24396,1.114504,-0.9007633,-0.4580153,0.0742229,-9.980586,-0.3136516
124502,-16.36473,1.114504,-0.9770992,-0.3816794,0.08619434,-10.05481,-0.3806916
124596.4,-16.36473,0.7328244,-0.961832,-0.3206107,0.03711145,-9.969811,-0.3651288
124783.9,-16.18357,0.8091603,-0.7938932,-0.5801527,0.009577149,-10.00453,-0.4297745
124986.8,-16.0628,1.022901,-0.961832,-0.5801527,0.03950574,-10.00094,-0.4118174
125112.5,-16.18357,1.29771,-0.8091603,-0.5954198,0.002394287,-9.988966,-0.3723117
125331.8,-16.0628,1.480916,-0.8396947,-0.4122137,0.07781433,-9.945868,-0.3914659
125503.9,-16.24396,1.358779,-0.6717557,-0.5954198,0.01077429,-10.0153,-0.283723
125597.8,-16.42512,1.541985,-0.7175573,-0.5038168,0.1005601,-9.997346,-0.3723117
125818,-16.42512,0.961832,-0.5496183,-0.3969466,0.07182861,-10.0153,-0.3495659
126003.5,-16.24396,1.374046,-0.7633588,-0.7938932,0.07781433,-10.03685,-0.3328059
126097.9,-16.0628,1.038168,-0.8854962,-0.519084,0.05387146,-9.937489,-0.408226
126300.3,-16.00242,0.9465649,-0.7633588,-0.5496183,0.0658429,-10.01889,-0.3148488
126427.5,-16.24396,1.496183,-0.8091603,-0.5801527,0.05866003,-9.988966,-0.3699174
126629.4,-16.00242,1.29771,-0.6259542,-0.519084,0.09457434,-9.975798,-0.3208345
126725.8,-16.0628,0.8549618,-0.5648855,-0.6717557,0.1005601,-9.953052,-0.3914659
126941.5,-16.24396,0.8396947,-0.7633588,-0.4427481,0.1173201,-9.950657,-0.3830859
127035.4,-16.18357,1.694656,-0.7938932,-0.5343512,0.1245029,-10.04643,-0.3052716
127254.1,-16.00242,1.312977,-0.6870229,-0.4732825,0.0742229,-10.00812,-0.3459745
127364,-16.36473,1.740458,-0.4732825,-0.6564885,0.04908289,-10.04164,-0.3531573
127566.4,-16.36473,0.9770992,-0.6412214,-0.5343512,0.1173201,-9.925517,-0.3842831
127754.9,-16.0628,1.175573,-0.8396947,-0.5343512,0.0742229,-10.03446,-0.3459745
127941.9,-16.00242,1.038168,-0.778626,-0.7328244,0.05985718,-10.04284,-0.3902688
128036.3,-16.18357,1.114504,-0.8091603,-0.5038168,0.1053486,-10.03206,-0.3555516
128254.5,-16.30435,0.8854962,-0.8396947,-0.3969466,0.1173201,-10.00213,-0.3328059
128442,-16.0628,0.9160305,-0.8396947,-0.6259542,0.1233058,-10.05122,-0.399846
128536.9,-16.18357,1.435115,-0.8549618,-0.4274809,0.07182861,-9.985374,-0.3471716
128754.6,-16.18357,1.114504,-0.7633588,-0.4580153,0.04549145,-10.00692,-0.4058317
128864,-16.0628,1.068702,-0.8854962,-0.2748092,0.08858863,-10.02727,-0.3519602
129066.9,-16.0628,1.557252,-0.8854962,-0.4427481,0.1149258,-10.00453,-0.3507631
129255.9,-15.94203,0.7938932,-0.7022901,-0.4427481,0.09457434,-9.976995,-0.4058317
129349.3,-16.0628,1.19084,-0.5648855,-0.7175573,0.1161229,-10.07875,-0.3627345
129567.5,-16.18357,1.526718,-0.8396947,-0.4427481,0.0275343,-9.976995,-0.3447773
129662.9,-16.24396,1.343511,-0.8091603,-0.351145,0.06823719,-9.96622,-0.3878745
129864.8,-16.24396,1.312977,-0.8549618,-0.4885496,0.05866003,-9.917137,-0.3878745
129991.5,-16.00242,0.6412214,-0.7938932,-0.3664122,0.1005601,-10.06199,-0.3759031
130179.5,-16.30435,1.099237,-0.8396947,-0.5648855,0.06105432,-9.990163,-0.325623
130380.9,-16.0628,1.251908,-0.961832,-0.4427481,0.04070288,-9.979388,-0.3591431
130569.4,-16.24396,1.526718,-0.9312977,-0.519084,0.08020861,-9.896786,-0.2968916
130663.3,-15.82126,1.572519,-0.7480916,-0.6412214,0.07901148,-10.02368,-0.3878745
130881.5,-16.18357,1.022901,-0.6717557,-0.4580153,0.09816577,-9.971008,-0.3423831
130975.4,-15.82126,1.221374,-0.5496183,-0.5954198,0.01795715,-9.9746,-0.3375945
131193.6,-16.36473,1.40458,-0.778626,-0.4274809,0.06225146,-10.00094,-0.3842831
131345.3,-15.94203,1.160305,-0.7480916,-0.3969466,0.08020861,-10.02368,-0.3555516
131516.8,-16.0628,1.251908,-0.8549618,-0.5038168,0.04549145,-9.971008,-0.3543545
131690.4,-15.82126,1.312977,-0.7938932,-0.5496183,0.08140576,-9.979388,-0.3866774
131783.3,-15.82126,1.29771,-0.778626,-0.4274809,0.05267432,-10.04164,-0.4321688
132001.5,-16.0628,1.129771,-0.8091603,-0.4885496,0.1113344,-10.06798,-0.3016802
132096.9,-15.94203,0.961832,-0.7480916,-0.4274809,0.09696863,-10.0177,-0.3830859
132298.8,-15.88165,1.007634,-0.7633588,-0.4274809,0.1280944,-10.00812,-0.3567488
132424,-16.24396,1.312977,-0.610687,-0.5343512,0.07182861,-9.986571,-0.3112573
132627.4,-16.30435,0.8854962,-1.007634,-0.4732825,0.02394287,-10.02009,-0.3639316
132815.4,-15.88165,1.374046,-0.6870229,-0.3664122,0.007182861,-10.0596,-0.3675231
133003.4,-16.0628,1.19084,-0.6564885,-0.5496183,0.06943433,-9.994951,-0.3938602
133099.8,-16.0628,2.030534,-0.7938932,-0.7328244,0.07901148,-9.993754,-0.3136516
133316,-16.18357,1.145038,-0.6412214,-0.3206107,0.0550686,-10.02249,-0.3782974
133410.4,-16.0628,1.450382,-0.8244275,-0.5954198,0.1113344,-10.07995,-0.3651288
133612.3,-15.94203,1.312977,-0.778626,-0.5648855,0.09816577,-9.955446,-0.3040745
133739,-16.0628,0.9770992,-0.8549618,-0.4885496,0.01556287,-9.992558,-0.3938602
133925.5,-16.0628,1.129771,-0.7328244,-0.4274809,0.1041515,-10.02009,-0.3854802
134143.8,-16.0628,1.450382,-0.7328244,-0.4122137,0.1041515,-10.02608,-0.3375945
134315.9,-15.94203,1.282443,-0.778626,-0.4885496,0.05147717,-10.04643,-0.3579459
134409.8,-15.82126,1.282443,-0.8396947,-0.6259542,0.08619434,-10.02129,-0.3878745
134628,-16.36473,1.038168,-0.7480916,-0.3969466,0.08619434,-10.01291,-0.3016802
134819,-16.0628,0.8244275,-0.6259542,-0.6412214,0.04429431,-9.996149,-0.3435802
134911.9,-16.0628,1.343511,-0.7938932,-0.5496183,0.05746289,-10.02727,-0.3782974
135112.8,-16.0628,1.022901,-0.7938932,-0.5496183,0.0933772,-10.00812,-0.292103
135253.4,-16.18357,0.9770992,-0.7175573,-0.3816794,0.08978577,-10.06079,-0.3687202
135441.4,-16.30435,1.29771,-0.610687,-0.5343512,0.0826029,-10.00453,-0.3806916
135535.3,-15.94203,1.29771,-0.7938932,-0.5954198,0.07901148,-10.04763,-0.3723117
135755,-16.0628,1.007634,-0.778626,-0.4732825,0.08499719,-10.0165,-0.3148488
135926.1,-15.82126,1.312977,-0.9465649,-0.6870229,0.02633716,-10.00094,-0.3304116
136034.9,-15.82126,1.694656,-0.9770992,-0.6717557,0.004788574,-10.04403,-0.3747059
136237.8,-16.0628,1.038168,-0.778626,-0.4885496,0.1041515,-10.04523,-0.3699174
136363.5,-16.18357,0.870229,-0.8396947,-0.4274809,0.1233058,-9.986571,-0.3687202
136566.4,-16.00242,1.083969,-0.7633588,-0.5496183,0.04908289,-10.00333,-0.3842831
136770.3,-16.18357,1.236641,-0.6564885,-0.5801527,0.06225146,-10.02608,-0.4142117
136848.8,-15.88165,1.587786,-0.5954198,-0.6717557,0.07063147,-10.04882,-0.3352002
137067,-15.88165,1.51145,-0.7022901,-0.4580153,0.1209115,-10.01051,-0.3280173
137162.4,-15.88165,1.160305,-0.7480916,-0.6870229,0.09098291,-10.03326,-0.3387916
137350.4,-15.88165,1.221374,-0.8396947,-0.6717557,0.1316858,-10.04044,-0.3794945
137567.1,-16.30435,1.312977,-0.6870229,-0.3664122,0.08140576,-9.993754,-0.3723117
137708.3,-15.94203,0.8396947,-0.8091603,-0.4274809,0.09218005,-10.03685,-0.3268202
137880.4,-16.18357,1.312977,-0.7328244,-0.5496183,0.07781433,-9.972206,-0.3244259
137989.6,-15.82126,0.7175573,-0.778626,-0.4580153,0.05028003,-10.00932,-0.3591431
138193.5,-16.0628,1.099237,-0.9465649,-0.5496183,0.06225146,-9.96622,-0.3340031
138380,-15.88165,1.083969,-0.9770992,-0.7938932,0.05028003,-10.02967,-0.3519602
138568,-15.94203,1.19084,-0.8549618,-0.5801527,0.1197144,-9.998543,-0.3208345
138755,-16.0628,0.8396947,-0.7022901,-0.4732825,0.07781433,-10.00932,-0.3292145
138850.9,-16.30435,1.419847,-0.8549618,-0.5496183,0.1149258,-9.988966,-0.3423831
139067.6,-16.0628,1.19084,-0.8549618,-0.6564885,0.0826029,-10.00333,-0.3423831
139192.9,-16.0628,1.038168,-0.870229,-0.6717557,0.0933772,-9.954248,-0.4225917
139382.9,-15.94203,1.221374,-0.7022901,-0.5801527,0.08140576,-10.11347,-0.3866774
139474.3,-15.88165,1.068702,-0.870229,-0.6412214,0.05866003,-10.00932,-0.3435802
139692.5,-16.00242,1.19084,-0.6870229,-0.8549618,0.05746289,-9.956643,-0.3531573
139788.9,-15.82126,1.358779,-0.6259542,-0.3969466,0.05866003,-10.02009,-0.3902688
139975.9,-16.0628,1.129771,-0.7480916,-0.5801527,0.01077429,-9.939883,-0.3902688
140180.3,-15.94203,1.129771,-0.6717557,-0.6717557,0.1161229,-9.978191,-0.4345631
140302.5,-15.82126,1.435115,-0.8854962,-0.4580153,0.06823719,-10.00333,-0.3854802
140520.8,-15.94203,0.9770992,-0.6259542,-0.5648855,0.1304886,-10.03446,-0.3100602
140693.4,-15.88165,1.221374,-0.9160305,-0.4122137,0.1328829,-10.05601,-0.3711145
140787.3,-15.82126,1.29771,-0.8854962,-0.4732825,0.06105432,-10.02847,-0.4070288
141005.5,-15.94203,1.465649,-0.7480916,-0.5801527,0.03950574,-10.0165,-0.3651288
141099.4,-15.94203,1.053435,-0.610687,-0.5038168,0.1005601,-10.05122,-0.3687202
141302.3,-15.94203,1.068702,-0.8244275,-0.5343512,0.08020861,-9.988966,-0.3830859
141427.5,-15.94203,1.343511,-0.5496183,-0.5343512,0.09936292,-9.981783,-0.3543545
141645.8,-15.94203,1.755725,-0.8244275,-0.7328244,0.03471716,-9.963826,-0.308863
141819.4,-15.82126,1.40458,-0.8549618,-0.4274809,0.07781433,-9.987769,-0.3363973
141911.8,-15.88165,1.114504,-0.7633588,-0.7633588,0.05147717,-9.950657,-0.3304116
142130.5,-15.94203,1.129771,-0.6870229,-0.6870229,0.06344861,-9.971008,-0.3938602
142226.4,-15.82126,1.389313,-0.7175573,-0.5648855,0.02274573,-9.960235,-0.3304116
142414.4,-16.0628,0.7175573,-0.9312977,-0.4732825,0.06823719,-9.984178,-0.2897087
142615.3,-15.82126,1.236641,-0.8091603,-0.4274809,0.1065458,-9.980586,-0.3603402
142740,-15.51933,1.114504,-0.5343512,-0.6870229,0.07302576,-10.00094,-0.2873144
142943.4,-15.82126,0.9923664,-0.7633588,-0.5496183,0.0466886,-9.925517,-0.3352002
143130.4,-15.76087,1.450382,-0.8244275,-0.4732825,0.1077429,-10.01291,-0.3675231
143227.3,-15.82126,1.007634,-0.8244275,-0.7175573,0.03950574,-9.981783,-0.3220316
143443,-15.88165,0.9007633,-0.5954198,-0.5496183,0.06823719,-10.08953,-0.3184402
143538.4,-15.94203,0.7633588,-0.5343512,-0.5801527,0.03711145,-10.00213,-0.3914659
143725.4,-16.24396,0.9465649,-0.5801527,-0.6259542,0.05626575,-10.02608,-0.3591431
143927.3,-15.76087,1.78626,-0.9160305,-0.6717557,0.07302576,-10.00453,-0.3340031
144053,-15.76087,1.145038,-0.8396947,-0.6259542,0.07661719,-9.99974,-0.3184402
144258.9,-15.88165,1.083969,-0.6717557,-0.5648855,0.08499719,-9.981783,-0.4225917
144443.9,-15.94203,0.778626,-0.8091603,-0.3816794,0.05028003,-9.988966,-0.3866774
144537.3,-16.00242,0.9465649,-0.7480916,-0.5038168,0.1017572,-10.01051,-0.3627345
144756,-16.0628,0.8396947,-0.6870229,-0.5496183,0.03232288,-9.976995,-0.3519602
144850.9,-16.0628,1.419847,-0.7633588,-0.5343512,0.1460515,-9.993754,-0.3064688
145052.8,-15.82126,1.526718,-0.7022901,-0.5648855,0.05028003,-9.955446,-0.3375945
145179.5,-16.00242,1.358779,-0.7022901,-0.3664122,0.1017572,-9.955446,-0.3759031
145364.5,-16.0628,0.7633588,-0.7328244,-0.6870229,0.08619434,-9.950657,-0.3184402
145567.4,-15.57971,1.312977,-0.5648855,-0.3358779,0.08380005,-10.03446,-0.3244259
145771.8,-15.76087,1.282443,-0.6717557,-0.5954198,0.05626575,-10.00932,-0.3112573
145865.1,-15.82126,0.9465649,-0.8244275,-0.351145,0.08380005,-10.05601,-0.3124545
146069,-15.88165,1.236641,-0.6717557,-0.5648855,0.07661719,-9.965023,-0.3375945
146258,-15.51933,1.664122,-0.778626,-0.7022901,0.04190002,-10.04763,-0.3363973
146444,-15.82126,1.129771,-0.9465649,-0.6870229,0.06105432,-10.02608,-0.3926631
146537.9,-15.82126,1.282443,-0.7022901,-0.5496183,0.08380005,-9.961432,-0.3950574
146740.8,-15.94203,0.7328244,-0.870229,-0.5954198,0.1257001,-9.967417,-0.3459745
146866.5,-15.82126,1.175573,-0.7480916,-0.7328244,0.0826029,-9.985374,-0.3866774
147069.4,-15.88165,1.29771,-0.8396947,-0.4885496,0.07542004,-10.03326,-0.3902688
147260.9,-15.82126,1.358779,-0.6870229,-0.5648855,0.04429431,-10.0572,-0.3902688
147351.8,-15.82126,1.51145,-0.7938932,-0.5801527,0.05866003,-9.971008,-0.3615374
147569.5,-15.82126,1.236641,-0.7328244,-0.6259542,0.07542004,-10.02608,-0.3806916
147757.5,-15.82126,1.282443,-0.8091603,-0.4732825,0.08499719,-9.972206,-0.3818888
147852.9,-15.82126,1.267176,-0.6564885,-0.5648855,0.1113344,-9.978191,-0.3543545
148054.3,-16.00242,0.5801527,-0.7022901,-0.4580153,0.07063147,-9.956643,-0.3615374
148179.5,-15.82126,1.038168,-0.8396947,-0.4427481,0.06943433,-10.0584,-0.3459745
148398.3,-15.82126,1.068702,-0.7175573,-0.4732825,0.04908289,-9.98298,-0.3615374
148570.4,-15.88165,1.236641,-0.8244275,-0.519084,-0.02992859,-9.981783,-0.3759031
148664.3,-15.94203,1.389313,-0.9312977,-0.5038168,0.08140576,-10.0165,-0.3483688
148882.5,-15.88165,1.770992,-0.8396947,-0.610687,0.07901148,-10.03326,-0.4237888
149069.5,-16.00242,1.89313,-0.8549618,-0.3664122,0.1137286,-10.05122,-0.3387916
149163.9,-15.45894,1.587786,-0.7480916,-0.6412214,0.04549145,-10.01051,-0.3495659
149366.8,-15.76087,1.740458,-0.8396947,-0.7175573,0.03711145,-10.02488,-0.3794945
149494.5,-15.82126,1.251908,-0.7175573,-0.5801527,0.04429431,-9.990163,-0.3615374
149682,-15.82126,1.038168,-0.7022901,-0.6717557,0.07302576,-10.00094,-0.4010431
149882.9,-15.88165,1.419847,-0.870229,-0.5343512,0.07182861,-10.03206,-0.3938602
150071.4,-15.94203,1.450382,-0.6717557,-0.4885496,0.08140576,-9.959037,-0.3818888
150165.3,-15.51933,1.160305,-0.8244275,-0.5801527,0.1029543,-10.02727,-0.3423831
150383,-15.88165,1.312977,-0.6870229,-0.3969466,0.07182861,-9.998543,-0.3687202
150477.4,-15.82126,1.19084,-0.6564885,-0.4732825,0.0742229,-9.990163,-0.3328059
150696.1,-15.51933,1.389313,-0.7022901,-0.5954198,0.06704004,-9.978191,-0.4118174
150807,-15.57971,1.29771,-0.7328244,-0.610687,0.09696863,-10.07037,-0.4154088
151008.4,-15.82126,1.389313,-0.778626,-0.5801527,0.1316858,-9.992558,-0.3735088
151211.8,-16.00242,1.572519,-0.6259542,-0.3358779,0.09696863,-10.05481,-0.3495659
151383.9,-15.76087,1.083969,-0.610687,-0.5648855,0.02873144,-10.03446,-0.3352002
151571.4,-15.6401,1.480916,-0.8396947,-0.8549618,0.03471716,-9.945868,-0.3112573
151665.3,-16.0628,1.221374,-0.5496183,-0.6717557,0.05746289,-10.01291,-0.3555516
151884,-15.88165,1.603053,-0.7328244,-0.4274809,0.07781433,-10.01291,-0.4321688
152071,-15.88165,1.374046,-0.7633588,-0.1832061,0.1053486,-10.0165,-0.4070288
152258.5,-16.00242,1.145038,-0.8091603,-0.5954198,0.03950574,-9.969811,-0.3507631
152352.9,-15.76087,1.51145,-0.870229,-0.5801527,0.08619434,-10.04523,-0.3447773
152558.8,-15.82126,0.9770992,-0.870229,-0.7022901,0.09816577,-10.06558,-0.3711145
152682.5,-15.76087,1.099237,-0.7022901,-0.5496183,0.04788574,-9.94108,-0.3675231
152884.4,-15.82126,1.603053,-0.6412214,-0.7022901,0.0466886,-9.980586,-0.4369574
153071.9,-15.82126,0.8091603,-0.8244275,-0.5801527,0.1316858,-9.996149,-0.3890716
153168.8,-15.82126,0.8854962,-0.8549618,-0.4122137,0.1173201,-9.960235,-0.3711145
153384,-15.82126,1.389313,-0.6412214,-0.5038168,0.07182861,-10.04763,-0.3854802
153479.4,-15.76087,1.251908,-0.7633588,-0.519084,0.07661719,-9.933897,-0.3543545
153665.9,-16.0628,1.251908,-0.7633588,-0.4580153,0.08858863,-9.918334,-0.3735088
153853.4,-15.57971,1.053435,-0.778626,-0.5648855,0.03471716,-10.04523,-0.3675231
154056.3,-15.6401,1.099237,-0.870229,-0.5496183,0.06704004,-10.03446,-0.399846
154181.5,-15.57971,1.51145,-0.8854962,-0.5954198,0.06943433,-9.994951,-0.3842831
154384.4,-15.82126,1.618321,-0.778626,-0.4427481,0.08978577,-9.956643,-0.3723117
154575.4,-15.6401,1.465649,-0.7175573,-0.7480916,0.06464575,-9.94946,-0.3220316
154666.3,-15.51933,1.114504,-0.8396947,-0.7022901,0.04190002,-10.04523,-0.3016802
154884,-15.6401,1.175573,-0.8091603,-0.6870229,0.1400658,-10.02727,-0.2909059
155071.5,-15.6401,1.847328,-0.610687,-0.4274809,0.09457434,-10.00453,-0.4118174
155166.9,-15.82126,1.343511,-0.8396947,-0.6412214,0.02873144,-9.992558,-0.3974517
155370.8,-15.82126,0.9007633,-0.8244275,-0.5496183,0.1185172,-9.96622,-0.3555516
155509.9,-15.82126,0.8244275,-0.9160305,-0.4427481,0.05147717,-9.917137,-0.3639316
155697.9,-15.57971,1.29771,-0.8854962,-0.5648855,0.09936292,-9.911152,-0.3567488
155806.6,-15.82126,1.129771,-0.5801527,-0.7480916,0.03950574,-10.01411,-0.3567488
156010,-15.76087,1.251908,-0.9160305,-0.5954198,0.0275343,-10.02608,-0.3675231
156104.4,-15.57971,1.267176,-0.870229,-0.5954198,0.1053486,-9.994951,-0.3759031
156307.3,-15.6401,0.9465649,-0.7633588,-0.6259542,0.08978577,-9.971008,-0.3794945
156434,-15.76087,1.343511,-0.9007633,-0.6412214,0.07781433,-10.02129,-0.3387916
156634.9,-15.82126,1.038168,-0.8244275,-0.6412214,0.05387146,-10.03565,-0.4130145
156825.9,-15.57971,0.6564885,-0.5954198,-0.7175573,0.05147717,-9.962628,-0.317243
156916.8,-15.76087,1.709924,-0.8396947,-0.5801527,0.06344861,-10.01889,-0.3280173
157135,-15.51933,1.114504,-0.6870229,-0.519084,0.0466886,-9.976995,-0.3160459
157229.4,-15.51933,1.053435,-0.961832,-0.6259542,0.06344861,-10.01051,-0.399846
157432.3,-15.57971,1.19084,-0.7328244,-0.6259542,-0.008380005,-9.963826,-0.3902688
157558,-15.51933,1.465649,-0.9312977,-0.5343512,0.07781433,-9.927912,-0.3615374
157776.3,-15.82126,0.7938932,-0.7633588,-0.4122137,0.06823719,-9.994951,-0.4178031
157951.4,-15.76087,0.9770992,-0.9465649,-0.6412214,0.1173201,-9.878829,-0.3160459
158042.3,-15.57971,1.160305,-0.6412214,-0.4427481,0.05866003,-9.971008,-0.3627345
158261,-15.82126,0.610687,-0.7328244,-0.5648855,0.04788574,-10.00213,-0.3902688
158355.9,-15.76087,1.450382,-0.8091603,-0.6564885,0.07063147,-9.997346,-0.317243
158558.3,-15.51933,0.9923664,-0.7328244,-0.3816794,0.06943433,-9.997346,-0.3950574
158683.5,-15.51933,1.282443,-1.053435,-0.6259542,0.04309717,-10.02368,-0.3435802
158871,-15.51933,1.282443,-0.7480916,-0.5496183,0.02633716,-10.02967,-0.3196373
159074.4,-15.6401,1.160305,-0.7175573,-0.4274809,0.1185172,-9.980586,-0.3280173
159262.4,-15.82126,1.221374,-0.6870229,-0.4427481,0.0933772,-9.955446,-0.3076659
159359.3,-15.6401,0.9007633,-0.7022901,-0.610687,0.09457434,-9.975798,-0.3459745
159575.5,-15.39855,1.236641,-0.8396947,-0.4427481,0.08020861,-10.02488,-0.3627345
159762,-15.88165,1.29771,-0.8549618,-0.6564885,0.06464575,-9.986571,-0.3950574
159858.9,-15.88165,0.8549618,-0.8854962,-0.5648855,0.05866003,-9.98298,-0.3459745
160045.4,-15.51933,0.9007633,-0.8244275,-0.7175573,0.07901148,-10.10389,-0.4345631
160246.8,-15.6401,1.450382,-0.7175573,-0.6717557,0.09936292,-10.01051,-0.3890716
160374,-15.45894,0.8244275,-0.7633588,-0.519084,0.08619434,-10.0584,-0.3016802
160574.4,-15.6401,1.160305,-0.7938932,-0.5801527,0.07302576,-10.02249,-0.4034374
160764.4,-15.82126,1.312977,-0.8549618,-0.4427481,0.05866003,-10.00333,-0.3818888
160856.3,-15.76087,0.610687,-0.9160305,-0.610687,0.009577149,-10.02368,-0.3531573
161076.5,-15.82126,1.053435,-0.9160305,-0.6259542,0.1472487,-9.986571,-0.2956945
161262.5,-15.51933,1.29771,-0.9923664,-0.7633588,0.03471716,-10.04403,-0.424986
161357.4,-15.45894,1.267176,-0.7328244,-0.6259542,0.0742229,-9.895589,-0.3399888
161590.6,-15.6401,1.40458,-0.7480916,-0.610687,0.05866003,-10.05361,-0.3567488
161684.5,-15.82126,1.587786,-0.8549618,-0.7022901,0.08140576,-9.98298,-0.3519602
161874.5,-15.51933,0.961832,-0.7633588,-0.7480916,0.07063147,-9.985374,-0.3699174
162075.4,-15.82126,1.29771,-0.6870229,-0.7175573,0.1328829,-10.03685,-0.3878745
162202.6,-15.76087,1.068702,-0.8091603,-0.6564885,0.04908289,-10.02608,-0.3615374
162403.5,-15.57971,1.053435,-0.778626,-0.5648855,0.05866003,-9.961432,-0.4094231
162593.5,-15.57971,1.267176,-0.8396947,-0.5496183,0.1292915,-10.00573,-0.2968916
162684.9,-15.76087,1.343511,-0.778626,-0.519084,0.09218005,-9.972206,-0.4213945
162903.1,-15.6401,1.496183,-0.778626,-0.3206107,0.05267432,-10.07516,-0.3986488
162999,-15.6401,1.480916,-0.8091603,-0.4122137,0.1245029,-10.03087,-0.3543545
163186.5,-15.82126,1.755725,-0.7175573,-0.6717557,0.05387146,-10.05481,-0.3340031
163402.8,-15.82126,1.557252,-0.8091603,-0.1984733,0.1161229,-9.978191,-0.3363973
163513.1,-15.82126,1.40458,-0.7480916,-0.5954198,0.05866003,-10.08115,-0.3615374
163716,-15.57971,1.29771,-0.7175573,-0.7022901,0.1185172,-9.998543,-0.3363973
163918.9,-15.57971,0.9770992,-0.6259542,-0.6870229,0.1005601,-9.961432,-0.4285774
163981.9,-15.45894,0.9160305,-1.022901,-0.5038168,0.1029543,-10.0596,-0.3627345
164216.1,-15.45894,1.007634,-0.7480916,-0.4732825,0.1520372,-9.985374,-0.3184402
164310,-15.76087,1.618321,-0.7480916,-0.3358779,0.1496429,-9.992558,-0.3818888
164528.3,-15.51933,1.221374,-0.6870229,-0.3206107,0.08020861,-10.06199,-0.3531573
164638.1,-15.51933,1.572519,-0.7175573,-0.5343512,0.08499719,-9.927912,-0.3806916
164856.9,-15.51933,1.435115,-0.8549618,-0.4885496,0.1041515,-9.947065,-0.3411859
164938.4,-15.6401,1.29771,-0.6564885,-0.5648855,0.08619434,-9.987769,-0.3866774
165155.6,-15.51933,0.8091603,-0.6259542,-0.4885496,0.1161229,-9.945868,-0.3100602
165341.6,-15.51933,1.251908,-0.9465649,-0.8091603,0.03352002,-10.02009,-0.3818888
165436.5,-15.82126,1.557252,-0.9160305,-0.4122137,0.09457434,-10.00573,-0.3507631
165638.9,-15.57971,1.068702,-0.7175573,-0.4885496,0.06344861,-9.980586,-0.3675231
165764.1,-15.82126,1.282443,-0.7633588,-0.7633588,0.02992859,-9.972206,-0.3603402
165967,-15.45894,1.175573,-0.7633588,-0.610687,0.06823719,-10.00932,-0.3411859
166155,-15.33817,0.7175573,-0.7938932,-0.7175573,0.04549145,-10.02129,-0.325623
166345.5,-15.57971,0.9312977,-0.8854962,-0.5038168,0.1077429,-10.03087,-0.3363973
166439.4,-15.45894,1.251908,-0.8091603,-0.4580153,0.1029543,-9.961432,-0.3316088
166654.1,-15.57971,0.6717557,-0.8091603,-0.6259542,0.1077429,-10.0153,-0.3495659
166750,-15.51933,1.007634,-0.8396947,-0.6259542,0.06344861,-9.95784,-0.3830859
166936,-15.51933,1.022901,-0.7328244,-0.4580153,0.08619434,-10.00094,-0.3340031
167139.4,-15.82126,1.648855,-0.8091603,-0.7328244,0.05387146,-10.01411,-0.3723117
167264.6,-15.57971,1.526718,-0.9312977,-0.7022901,0.06823719,-10.02249,-0.3902688
167482.9,-15.33817,1.267176,-0.7328244,-0.6412214,0.05866003,-9.988966,-0.3974517
167655,-15.45894,1.206107,-0.7633588,-0.5954198,0.1041515,-10.03805,-0.3603402
167751.4,-15.33817,1.343511,-1.007634,-0.7938932,0.1185172,-10.06079,-0.3459745
167967.1,-15.6401,1.007634,-0.7328244,-0.4427481,0.1412629,-9.996149,-0.3675231
168062.5,-15.45894,1.496183,-0.7328244,-0.6870229,0.08978577,-10.03446,-0.433366
168264.4,-15.51933,1.145038,-0.778626,-0.519084,0.1149258,-9.986571,-0.3411859
168389.6,-15.82126,1.419847,-0.7175573,-0.4732825,0.07901148,-10.04643,-0.3100602
168592.5,-15.33817,1.114504,-0.8854962,-0.3358779,0.01316858,-10.04643,-0.3375945
168795.9,-15.76087,1.343511,-0.870229,-0.4732825,0.05626575,-9.981783,-0.433366
168874.4,-15.6401,1.389313,-0.9465649,-0.7022901,0.08619434,-10.01051,-0.3304116
169095.1,-15.76087,1.267176,-0.8854962,-0.6564885,0.05626575,-9.975798,-0.3591431
169280.6,-15.51933,1.129771,-0.7480916,-0.778626,0.1233058,-10.06319,-0.3340031
169376,-15.57971,1.282443,-0.6870229,-0.3816794,0.08739148,-10.00932,-0.3136516
169577.9,-15.51933,1.206107,-0.7328244,-0.5801527,0.1005601,-9.976995,-0.3747059
169705.1,-15.45894,1.221374,-0.961832,-0.7328244,0.1089401,-9.980586,-0.3567488
169906.5,-15.45894,1.572519,-0.7175573,-0.5038168,0.05267432,-10.04763,-0.3423831
170097,-15.45894,1.374046,-0.7938932,-0.6717557,0.1065458,-10.05241,-0.3603402
170188.9,-15.45894,0.9923664,-0.961832,-0.4732825,0.003591431,-9.967417,-0.3794945
170406.6,-15.51933,0.6870229,-0.7633588,-0.610687,0.09218005,-9.961432,-0.3447773
170501,-15.45894,0.9770992,-0.6564885,-0.4885496,0.001197144,-9.993754,-0.3723117
170703.9,-15.51933,1.267176,-0.9007633,-0.5496183,0.004788574,-9.992558,-0.3423831
170829.1,-15.33817,1.51145,-0.9770992,-0.5038168,-0.004788574,-10.02727,-0.4345631
171031.5,-15.51933,1.282443,-0.9007633,-0.7022901,0.06105432,-9.927912,-0.3771002
171219.5,-15.45894,0.7938932,-0.8091603,-0.4732825,0.05985718,-9.997346,-0.4166059
171313.4,-15.45894,1.129771,-0.7633588,-0.6259542,0.07182861,-9.929109,-0.3495659
171531.6,-15.45894,1.206107,-0.8091603,-0.5801527,-0.005985718,-10.00453,-0.4261831
171719.1,-15.57971,1.984733,-0.870229,-0.4732825,0.09457434,-10.02129,-0.3304116
171814.5,-15.45894,1.145038,-0.870229,-0.4732825,0.02514002,-10.07037,-0.3136516
172016.4,-15.45894,1.328244,-0.961832,-0.7175573,0.1268972,-10.00333,-0.3806916
172142.6,-15.33817,1.038168,-0.9007633,-0.6412214,0.1125315,-10.02727,-0.3531573
172344.5,-15.45894,1.51145,-0.8549618,-0.610687,0.02394287,-9.971008,-0.3411859
172532,-15.45894,0.961832,-0.9160305,-0.5038168,0.04908289,-10.02009,-0.3244259
172625.9,-15.57971,1.40458,-0.7938932,-0.3969466,0.09816577,-10.00333,-0.3950574
172844.6,-15.39855,1.129771,-0.9465649,-0.7022901,0.05387146,-10.02847,-0.3112573
173032.1,-15.51933,1.022901,-0.7328244,-0.5496183,0.1436572,-10.06319,-0.3447773
173219.6,-15.6401,1.145038,-0.7938932,-0.5954198,0.07182861,-9.929109,-0.3471716
173314,-15.27778,1.541985,-0.7633588,-0.6717557,0.0933772,-10.05361,-0.3268202
173516.9,-15.45894,1.496183,-0.6259542,-0.4122137,-0.009577149,-10.03326,-0.3735088
173642.1,-15.57971,0.8396947,-0.8549618,-0.5954198,0.1149258,-10.07157,-0.3268202
173860.9,-15.6401,0.9007633,-0.7328244,-0.5496183,0.06823719,-9.969811,-0.3459745
174033,-15.15701,0.9770992,-0.8549618,-0.6564885,0.1197144,-10.04164,-0.3507631
174128.4,-15.57971,1.450382,-0.7938932,-0.6870229,0.07781433,-9.968615,-0.424986
174345.1,-15.6401,1.251908,-0.7938932,-0.4122137,0.04070288,-9.987769,-0.3771002
174532.6,-15.33817,1.007634,-0.8244275,-0.7328244,0.1041515,-10.03087,-0.3208345
174720.6,-15.33817,1.145038,-0.7938932,-0.4274809,0.07781433,-9.992558,-0.3555516
174815.5,-15.45894,0.7480916,-0.6870229,-0.3053435,0.08619434,-10.03685,-0.4237888
175003,-15.76087,1.603053,-0.7328244,-0.4885496,0.01795715,-10.00094,-0.3411859
175205.9,-15.6401,1.145038,-0.778626,-0.5343512,0.05028003,-10.05481,-0.3567488
175332.6,-15.51933,0.6870229,-0.8091603,-0.7633588,0.1041515,-9.996149,-0.3782974
175533.5,-15.51933,1.236641,-0.9312977,-0.5648855,0.07661719,-10.02488,-0.3878745
175722,-15.09662,0.610687,-0.9465649,-0.5343512,0.0826029,-10.06798,-0.3531573
175815.4,-15.27778,1.358779,-0.8244275,-0.7480916,0.03950574,-10.01171,-0.3962545
176033.6,-15.33817,1.496183,-0.8854962,-0.5038168,0.08739148,-9.99136,-0.3591431
176221.1,-15.39855,1.557252,-0.8244275,-0.5648855,0.05028003,-10.04044,-0.3926631
176316.5,-15.45894,1.419847,-0.7022901,-0.4274809,0.07661719,-10.04763,-0.3567488
176517.9,-15.15701,1.038168,-0.7480916,-0.5648855,0.1640087,-9.9746,-0.3914659
176645.1,-15.33817,1.129771,-0.7633588,-0.5343512,0.1245029,-10.0165,-0.3555516
176846,-15.45894,0.870229,-0.8244275,-0.5801527,0.06464575,-10.00213,-0.3806916
177034.5,-15.57971,1.541985,-0.8244275,-0.5648855,0.1221086,-9.954248,-0.3723117
177222.5,-15.76087,1.206107,-1.160305,-0.5496183,0.1185172,-9.960235,-0.3423831
177409.5,-15.45894,1.007634,-0.8244275,-0.4580153,0.04070288,-9.988966,-0.3567488
177503.4,-15.45894,1.572519,-0.8244275,-0.5496183,0.07182861,-9.985374,-0.3890716
177722.1,-15.57971,1.099237,-0.7480916,-0.7480916,0.03352002,-10.03206,-0.3675231
177817,-15.27778,0.8396947,-0.8549618,-0.519084,0.1113344,-10.00573,-0.2909059
178018.4,-15.39855,1.251908,-0.7328244,-0.5496183,0.07302576,-9.954248,-0.3507631
178145.6,-15.15701,1.51145,-0.7328244,-0.6870229,0.1077429,-10.0165,-0.3711145
178332.1,-15.57971,1.206107,-0.7938932,-0.4885496,0.0826029,-9.975798,-0.3974517
178535,-15.27778,1.389313,-0.6717557,-0.7175573,0.08140576,-10.03685,-0.3962545
178726.5,-15.45894,1.175573,-0.8091603,-0.6259542,0.08499719,-10.11706,-0.3926631
178816.9,-15.45894,0.7938932,-0.7938932,-0.4885496,0.05985718,-9.994951,-0.3735088
179035.6,-15.57971,1.221374,-0.9770992,-0.7175573,0.0933772,-9.992558,-0.3459745
179131.5,-15.45894,1.587786,-0.778626,-0.4885496,0.06704004,-10.04284,-0.4453374
179332.9,-15.45894,1.648855,-0.9770992,-0.3358779,0.06823719,-10.06558,-0.4154088
179460.1,-15.45894,1.251908,-0.7328244,-0.4885496,0.02514002,-10.00094,-0.3962545
179676.9,-15.15701,1.206107,-0.9312977,-0.6259542,0.1161229,-10.0177,-0.3926631
179848.5,-15.51933,1.29771,-0.8091603,-0.7022901,0.1101372,-10.00932,-0.3375945
179942.9,-15.51933,1.389313,-0.8396947,-0.6717557,0.1113344,-10.03087,-0.3579459
180162.1,-15.33817,1.221374,-0.778626,-0.7175573,0.07063147,-10.01411,-0.3962545
180348.6,-15.57971,1.603053,-0.8244275,-0.7633588,0.06464575,-9.976995,-0.4477317
180443.5,-15.57971,0.9312977,-0.8091603,-0.5038168,0.0933772,-10.03326,-0.3914659
180645.9,-15.57971,1.251908,-0.7633588,-0.6259542,0.04788574,-10.08234,-0.3699174
180771.1,-15.27778,0.8244275,-0.8091603,-0.5954198,0.1077429,-10.04523,-0.3579459
180974,-15.27778,1.221374,-0.9007633,-0.5648855,0.1161229,-10.0153,-0.3304116
181161.5,-15.33817,1.083969,-0.9465649,-0.6259542,0.09457434,-10.03925,-0.3711145
181255.4,-15.33817,1.129771,-0.8396947,-0.5038168,0.1065458,-10.02009,-0.3352002
181473.6,-15.39855,1.221374,-0.8244275,-0.6564885,0.05985718,-10.00213,-0.3627345
181661.1,-15.33817,0.9465649,-0.8854962,-0.6412214,0.07063147,-10.09192,-0.3340031
181755,-15.33817,1.450382,-0.8091603,-0.3358779,0.07182861,-9.975798,-0.3363973
181960.9,-15.51933,1.175573,-0.6717557,-0.7175573,0.09816577,-10.10509,-0.3747059
182085.1,-15.39855,1.312977,-0.8091603,-0.5343512,0.1245029,-9.988966,-0.3615374
182271.1,-15.45894,1.755725,-0.6870229,-0.4274809,0.07661719,-10.01291,-0.441746
182489.4,-15.27778,1.40458,-0.7633588,-0.4885496,0.08140576,-10.00333,-0.3782974
182664.5,-15.45894,1.526718,-0.8244275,-0.4580153,0.01316858,-10.02249,-0.3902688
182757.4,-15.45894,1.450382,-0.8396947,-0.7175573,0.1424601,-9.96622,-0.3519602
182973.6,-15.27778,0.870229,-0.9465649,-0.8244275,0.08739148,-9.959037,-0.3423831
183069.5,-15.27778,0.7938932,-0.8854962,-0.4427481,0.07901148,-9.959037,-0.3435802
183270.9,-15.27778,1.038168,-0.8854962,-0.5038168,0.1400658,-10.03925,-0.4094231
183396.1,-15.33817,1.129771,-0.7328244,-0.4427481,0.02633716,-9.961432,-0.3495659
183599,-15.45894,0.9160305,-0.8091603,-0.4885496,0.05387146,-10.03565,-0.3519602
183789,-15.15701,1.206107,-0.9770992,-0.5648855,0.1197144,-10.01889,-0.3639316
183882.9,-15.45894,1.40458,-0.8091603,-0.610687,0.1053486,-9.976995,-0.308863
184098.1,-15.33817,1.099237,-1.175573,-0.6259542,0.08978577,-9.947065,-0.3567488
184193,-14.97585,1.221374,-0.7633588,-0.5038168,0.01556287,-9.927912,-0.2956945
184411.3,-15.45894,1.29771,-0.7022901,-0.5648855,0.1137286,-10.02847,-0.3507631
184521.1,-15.57971,1.251908,-0.870229,-0.5648855,0.04908289,-10.05002,-0.3950574
184740.4,-15.45894,1.312977,-0.9923664,-0.5954198,0.05626575,-9.972206,-0.3064688
184912,-15.45894,0.8549618,-0.7938932,-0.5954198,0.04788574,-10.00812,-0.3471716
185006.4,-15.27778,0.9465649,-0.8091603,-0.5038168,0.07781433,-9.973403,-0.3076659
185224.6,-15.03623,1.541985,-0.8396947,-0.5801527,0.1125315,-10.07277,-0.3735088
185318.5,-15.03623,1.618321,-0.7022901,-0.351145,0.06823719,-9.962628,-0.3340031
185537.3,-15.09662,1.099237,-0.8091603,-0.7480916,0.04190002,-10.02249,-0.3950574
185647.1,-15.45894,1.312977,-0.7022901,-0.6259542,0.004788574,-10.00692,-0.3411859
185865.9,-15.45894,1.557252,-0.9160305,-0.4732825,0.05746289,-9.978191,-0.3723117
186039.5,-15.27778,0.8854962,-1.007634,-0.8091603,0.09457434,-9.998543,-0.3675231
186147.3,-15.45894,1.053435,-0.6259542,-0.7175573,0.08858863,-9.967417,-0.3986488
186350.1,-15.27778,0.9465649,-0.9923664,-0.7022901,0.1448544,-9.967417,-0.3854802
186445.5,-15.45894,1.19084,-0.9312977,-0.5496183,0.0658429,-9.98298,-0.3363973
186646.9,-15.27778,1.251908,-0.870229,-0.351145,0.1077429,-10.04044,-0.3866774
186774.6,-15.27778,1.694656,-0.7633588,-0.5954198,0.1448544,-10.04403,-0.3735088
186975.5,-15.45894,1.29771,-0.870229,-0.3816794,0.07901148,-9.986571,-0.2968916
187164,-15.09662,1.114504,-0.9160305,-0.7480916,0.08619434,-10.02608,-0.3926631
187257.4,-15.03623,1.541985,-0.6870229,-0.778626,-0.01556287,-9.937489,-0.3687202
187475.6,-15.33817,1.282443,-0.778626,-0.7633588,0.07781433,-9.996149,-0.3447773
187570,-15.27778,1.374046,-0.9465649,-0.519084,0.1041515,-10.00692,-0.3028773
187788.8,-15.51933,1.450382,-0.8091603,-0.4732825,0.1053486,-10.03206,-0.3208345
187900.1,-15.15701,1.053435,-0.870229,-0.519084,0.004788574,-9.963826,-0.3040745
188101.5,-15.33817,1.328244,-0.9007633,-0.6564885,0.09816577,-10.01051,-0.3148488
188304.9,-15.45894,0.9923664,-0.7633588,-0.7175573,0.07901148,-9.945868,-0.3866774
188386.4,-15.27778,1.328244,-0.870229,-0.6412214,0.05746289,-10.04523,-0.3711145
188601.6,-15.09662,1.40458,-0.778626,-0.5343512,0.1520372,-10.00453,-0.3555516
188697.5,-15.33817,1.29771,-0.870229,-0.5496183,0.1017572,-10.02847,-0.3495659
188898.4,-15.03623,1.19084,-0.7175573,-0.3358779,0.05387146,-9.943475,-0.3974517
189023.6,-15.33817,1.40458,-0.7480916,-0.5801527,0.1017572,-10.00213,-0.3567488
189227,-14.97585,1.587786,-0.7633588,-0.3816794,0.1029543,-9.985374,-0.3735088
189323.4,-15.27778,1.068702,-0.7938932,-0.3969466,0.04549145,-9.996149,-0.3818888
189540.6,-15.33817,1.419847,-0.6870229,-0.6259542,0.07542004,-9.994951,-0.3663259
189726.6,-15.27778,0.5954198,-0.7480916,-0.7480916,0.0742229,-10.02488,-0.3375945
189823,-15.27778,0.9770992,-0.870229,-0.5038168,0.02633716,-10.06079,-0.3447773
190023.9,-15.33817,1.007634,-0.8091603,-0.4274809,0.08978577,-9.987769,-0.3687202
190148.6,-15.15701,1.145038,-0.8549618,-0.4885496,0.07063147,-10.02368,-0.3603402
190351.5,-15.33817,0.9465649,-0.6564885,-0.6259542,0.09218005,-9.990163,-0.3818888
190555.4,-15.33817,1.206107,-0.7328244,-0.3664122,0.04788574,-10.00812,-0.3423831
190649.3,-15.09662,1.435115,-0.7480916,-0.5954198,0.08020861,-9.971008,-0.4261831
190852.1,-15.09662,1.053435,-0.9007633,-0.7480916,0.07302576,-9.943475,-0.3603402
190946.5,-15.27778,1.053435,-0.8396947,-0.5496183,0.1005601,-9.965023,-0.3914659
191149.4,-15.15701,1.160305,-0.778626,-0.4427481,0.1412629,-10.0153,-0.3411859
191275.6,-15.15701,0.961832,-0.7938932,-0.6412214,0.1304886,-9.990163,-0.3782974
191457.6,-15.03623,1.099237,-0.8091603,-0.5954198,0.0933772,-10.01291,-0.3747059
191646.1,-14.97585,1.435115,-0.5954198,-0.4274809,0.05387146,-9.994951,-0.3603402
191847.5,-15.45894,1.450382,-0.9007633,-0.5954198,0.05147717,-9.930305,-0.3974517
192035,-15.09662,1.19084,-0.8091603,-0.5954198,0.1185172,-10.0165,-0.3483688
192128.9,-15.15701,1.206107,-0.9007633,-0.6870229,0.06823719,-10.00333,-0.325623
192347.1,-15.15701,1.725191,-0.6717557,-0.5801527,0.08020861,-9.979388,-0.3232287
192443,-15.15701,1.129771,-0.6717557,-0.4732825,0.1197144,-9.993754,-0.3447773
192643.9,-15.27778,1.251908,-0.8244275,-0.5648855,0.02035144,-9.936292,-0.3459745
192771.1,-15.27778,0.7328244,-0.6717557,-0.5038168,0.06943433,-10.00213,-0.325623
192972,-15.27778,1.160305,-0.5648855,-0.5648855,0.0550686,-9.954248,-0.3483688
193160,-15.03623,1.633588,-0.6870229,-0.5954198,0.04429431,-9.9746,-0.3615374
193268.8,-15.09662,1.541985,-0.7175573,-0.5038168,-0.02514002,-9.988966,-0.4393517
193471.6,-15.03623,1.221374,-0.961832,-0.4427481,0.08140576,-10.00213,-0.3184402
193567.5,-15.09662,0.6564885,-0.9465649,-0.6717557,0.0550686,-10.02488,-0.2322458
193769.4,-15.15701,1.694656,-0.9465649,-0.5954198,0.07302576,-10.02368,-0.3699174
193895.6,-15.15701,1.358779,-0.7938932,-0.3664122,0.1101372,-9.9746,-0.3411859
194097.5,-15.09662,0.9312977,-0.7175573,-0.5801527,0.1233058,-10.01889,-0.3316088
194288.5,-15.45894,1.801527,-0.6870229,-0.5648855,0.05626575,-9.930305,-0.4453374
194475.5,-15.15701,1.007634,-0.6564885,-0.5801527,0.08140576,-10.01171,-0.3471716
194566.4,-15.27778,1.389313,-0.7175573,-0.5038168,0.07661719,-10.06798,-0.3914659
194785.1,-15.03623,1.358779,-1.145038,-0.5038168,0.06344861,-9.963826,-0.3615374
194972.1,-15.15701,0.9312977,-0.9007633,-0.6412214,0.09098291,-10.02129,-0.3328059
195067.5,-15.27778,1.251908,-0.7328244,-0.610687,0.1388687,-9.969811,-0.3974517
195269.4,-15.15701,1.145038,-0.9160305,-0.6259542,0.02035144,-10.01291,-0.3399888
195409.5,-15.15701,1.175573,-0.7480916,-0.6259542,0.05866003,-9.8908,-0.3411859
195598,-15.27778,0.8396947,-0.8244275,-0.4427481,0.0742229,-9.972206,-0.3759031
195706.8,-15.27778,0.9160305,-0.9007633,-0.5648855,0.09457434,-9.967417,-0.3028773
195909.6,-14.97585,1.282443,-0.9007633,-0.6412214,0.04788574,-9.984178,-0.3962545
196004,-15.03623,1.435115,-0.8854962,-0.6412214,0.09457434,-10.0991,-0.3627345
196206.4,-15.03623,1.007634,-0.778626,-0.519084,0.07542004,-9.979388,-0.3232287
196331.6,-15.09662,1.267176,-0.5954198,-0.3969466,0.1017572,-9.996149,-0.2741459
196534.5,-15.27778,1.236641,-0.9312977,-0.7022901,0.07302576,-10.05002,-0.3818888
196724,-15.15701,1.160305,-0.7480916,-0.5496183,0.08739148,-10.04643,-0.3914659
196816.9,-15.27778,1.053435,-0.4885496,-0.5038168,0.03830859,-10.02488,-0.3687202
197035.1,-15.03623,0.9160305,-0.9770992,-0.4274809,0.06105432,-9.9746,-0.4237888
197222.6,-15.15701,1.343511,-0.870229,-0.351145,0.1245029,-9.984178,-0.3723117
197317,-15.27778,0.8549618,-0.7938932,-0.5343512,0.08739148,-9.997346,-0.3208345
197522.9,-14.91546,0.9160305,-0.7938932,-0.5954198,-0.01197144,-10.04284,-0.3316088
197660,-15.09662,1.19084,-0.8244275,-0.7175573,0.1005601,-9.975798,-0.3076659
197848,-15.03623,0.9923664,-0.7175573,-0.5496183,0.09577148,-10.0991,-0.3902688
198035,-15.03623,1.633588,-0.8396947,-0.3358779,0.1077429,-9.945868,-0.3507631
198129.4,-15.09662,1.541985,-0.8244275,-0.4274809,0.1077429,-9.960235,-0.3304116
198347.1,-15.03623,0.7328244,-0.9923664,-0.5954198,0.1245029,-10.0153,-0.3399888
198441.5,-14.97585,1.099237,-0.7633588,-0.7175573,0.02514002,-10.03685,-0.3603402
198630,-15.03623,1.221374,-0.778626,-0.5801527,0.07542004,-10.06439,-0.3435802
198833.9,-15.45894,1.679389,-0.7328244,-0.3816794,0.1053486,-9.971008,-0.3854802
198957.1,-15.39855,1.053435,-0.870229,-0.5038168,0.05626575,-9.981783,-0.4010431
199175.4,-15.15701,0.9770992,-0.7328244,-0.6717557,0.02035144,-9.992558,-0.3747059
199350.5,-15.15701,0.9312977,-0.7480916,-0.4732825,0.06225146,-10.02847,-0.3878745
199441.9,-15.15701,1.267176,-1.068702,-0.5648855,0.07542004,-10.04523,-0.3112573
199660.6,-15.15701,0.5954198,-0.9923664,-0.7633588,0.05626575,-9.948263,-0.3579459
199847.6,-14.79469,1.40458,-0.9007633,-0.6717557,0.1544315,-9.984178,-0.2897087
199942,-14.91546,1.267176,-0.7480916,-0.5954198,0.1209115,-9.987769,-0.4034374
200145.4,-15.09662,0.9923664,-0.870229,-0.6870229,0.05387146,-9.930305,-0.3962545
200270.6,-14.97585,1.29771,-0.7328244,-0.5343512,0.1137286,-10.12783,-0.3459745
200473,-14.85507,1.022901,-0.8396947,-0.5496183,0.09816577,-10.03087,-0.4441403
200664,-14.97585,1.328244,-1.007634,-0.6564885,0.07182861,-9.969811,-0.3866774
200757.9,-15.15701,1.007634,-0.9312977,-0.610687,0.05985718,-10.05241,-0.3938602
200973.1,-15.03623,1.282443,-0.9007633,-0.4885496,0.07542004,-10.04763,-0.3603402
201068.5,-15.09662,1.175573,-1.007634,-0.4732825,0.09218005,-9.985374,-0.3268202
201269.9,-15.09662,1.465649,-0.7633588,-0.519084,0.07901148,-9.980586,-0.3747059
201395.1,-14.91546,1.19084,-0.870229,-0.519084,0.1221086,-10.04044,-0.3375945
201598,-15.09662,1.419847,-0.7938932,-0.7633588,0.1137286,-9.976995,-0.4046345
201785.5,-14.97585,1.312977,-0.6717557,-0.5648855,0.09816577,-10.0572,-0.2897087
201879.4,-15.09662,1.435115,-0.7328244,-0.6412214,0.1364744,-10.00453,-0.3016802
202097.6,-14.85507,1.038168,-0.8549618,-0.7480916,0.06464575,-9.967417,-0.4309717
202193,-14.97585,0.8854962,-0.8244275,-0.5801527,0.08020861,-10.03446,-0.3423831
202379,-15.27778,1.312977,-0.8091603,-0.5648855,0.07542004,-9.985374,-0.3507631
202582.4,-15.09662,0.9923664,-0.9160305,-0.610687,0.04070288,-9.948263,-0.3747059
202709.1,-14.91546,1.312977,-0.610687,-0.5496183,0.05626575,-9.981783,-0.4154088
202896.6,-14.91546,0.8244275,-0.778626,-0.6259542,0.1041515,-9.997346,-0.3160459
203098.5,-15.03623,1.496183,-0.8549618,-0.4732825,0.0466886,-10.00573,-0.3830859
203287,-15.15701,1.145038,-0.9007633,-0.4274809,0.1280944,-9.931503,-0.4261831
203395.8,-14.97585,1.450382,-0.7633588,-0.5496183,0.07542004,-10.00812,-0.3759031
203599.1,-15.15701,1.389313,-0.8244275,-0.6259542,0.1089401,-9.937489,-0.3615374
203786.6,-14.97585,1.221374,-0.961832,-0.4580153,0.02873144,-9.984178,-0.3878745
203882.5,-15.03623,1.618321,-0.8091603,-0.8091603,0.1292915,-10.01051,-0.3579459
204084.9,-15.03623,1.19084,-0.778626,-0.6412214,0.07542004,-10.02129,-0.3316088
204209.1,-15.03623,1.068702,-0.870229,-0.7480916,0.08020861,-9.998543,-0.3962545
204412,-15.03623,1.374046,-0.8396947,-0.519084,0.05985718,-10.04763,-0.3363973
204601,-15.15701,1.206107,-0.7633588,-0.7022901,0.06105432,-9.98298,-0.3124545
204708.8,-15.03623,1.236641,-0.778626,-0.778626,0.06823719,-10.07755,-0.3651288
204913.1,-15.09662,0.961832,-0.5648855,-0.5496183,0.04070288,-9.997346,-0.3878745
205099.6,-14.91546,1.221374,-0.8549618,-0.6412214,0.1568258,-9.997346,-0.3794945
205193.5,-14.91546,1.267176,-0.6870229,-0.7328244,0.1017572,-9.994951,-0.3938602
205396.9,-15.09662,1.328244,-0.7175573,-0.4732825,0.07063147,-10.01171,-0.3579459
205523.6,-14.91546,1.419847,-0.8549618,-0.6259542,0.05985718,-9.980586,-0.3950574
205725.5,-14.91546,0.9007633,-0.9160305,-0.5801527,0.1472487,-9.980586,-0.3220316
205913,-15.39855,0.9923664,-0.8396947,-0.4580153,0.1185172,-10.0596,-0.3423831
206009.4,-14.91546,0.8396947,-0.8549618,-0.5801527,0.05985718,-10.0596,-0.3543545
206225.1,-15.09662,0.9160305,-0.9160305,-0.3358779,0.0826029,-9.980586,-0.3543545
206412.1,-14.97585,1.114504,-0.6870229,-0.6717557,0.02633716,-9.988966,-0.4034374
206508,-15.03623,1.435115,-0.9312977,-0.6564885,0.07661719,-9.988966,-0.3950574
206696,-15.03623,0.9923664,-0.8854962,-0.6870229,0.1460515,-10.02249,-0.3136516
206897.9,-15.03623,1.40458,-0.778626,-0.7480916,0.02394287,-10.05002,-0.3579459
207021.6,-14.79469,1.389313,-1.007634,-0.610687,0.08978577,-10.06917,-0.3543545
207225.5,-15.09662,0.9923664,-0.6259542,-0.5343512,0.1640087,-9.975798,-0.3447773
207413.5,-15.03623,0.7328244,-0.7022901,-0.7022901,0.0466886,-10.03805,-0.3926631
207507.4,-15.15701,1.267176,-0.6717557,-0.4732825,0.1149258,-9.990163,-0.4237888
207725.6,-14.97585,0.7633588,-0.6412214,-0.6564885,0.04908289,-10.03446,-0.3555516
207820,-14.79469,1.007634,-0.7022901,-0.7480916,0.01556287,-9.997346,-0.3938602
208022.4,-15.09662,1.267176,-0.8549618,-0.7175573,0.04070288,-10.02368,-0.2956945
208148.6,-14.79469,1.465649,-0.8854962,-0.6870229,0.07182861,-10.10629,-0.3771002
208351,-15.03623,0.8854962,-0.778626,-0.5801527,0.03830859,-10.06199,-0.4154088
208540.5,-14.91546,1.206107,-0.9770992,-0.5496183,0.05746289,-10.04882,-0.3112573
208648.3,-15.03623,1.267176,-0.8549618,-0.4885496,0.1352772,-10.01051,-0.3244259
208851.6,-15.09662,1.633588,-0.7328244,-0.610687,0.0550686,-10.03685,-0.3328059
209039.1,-15.09662,1.450382,-0.8396947,-0.7328244,0.08739148,-10.02608,-0.3184402
209133,-15.15701,1.358779,-0.6870229,-0.6259542,0.07302576,-10.02368,-0.3950574
209321,-15.09662,0.5648855,-0.6564885,-0.7633588,0.02873144,-10.01889,-0.3160459
209524.4,-14.97585,1.221374,-0.7480916,-0.4580153,0.1137286,-9.994951,-0.3507631
209649.1,-14.97585,1.648855,-0.8396947,-0.870229,0.03711145,-9.985374,-0.3483688
209852,-15.09662,1.221374,-0.9312977,-0.5648855,0.03471716,-9.9327,-0.3615374
210040.5,-14.97585,1.022901,-0.9007633,-0.6412214,0.03950574,-10.08115,-0.3651288
210133.9,-14.91546,0.9923664,-0.778626,-0.4885496,0.1616144,-10.02009,-0.3627345
210354.1,-14.91546,1.572519,-1.022901,-0.5801527,0.08020861,-9.935095,-0.3316088
210540.1,-14.91546,1.160305,-0.8854962,-0.4274809,0.07182861,-9.9746,-0.3375945
210635,-14.91546,1.160305,-0.7480916,-0.6259542,0.03711145,-10.04523,-0.3399888
210836.9,-14.97585,1.328244,-0.778626,-0.610687,0.01676001,-9.98298,-0.300483
210992.9,-14.91546,0.9770992,-0.7480916,-0.610687,0.1185172,-10.00094,-0.3555516
211165,-15.27778,1.114504,-0.870229,-0.6564885,0.07063147,-10.01411,-0.4094231
211273.8,-14.91546,1.450382,-1.083969,-0.4732825,0.004788574,-10.05601,-0.3794945
211477.1,-14.97585,1.175573,-0.7633588,-0.6412214,0.06704004,-10.06079,-0.3352002
211572,-14.91546,0.9160305,-0.8854962,-0.7328244,0.09816577,-10.04763,-0.4010431
211773.4,-15.09662,1.221374,-0.9312977,-0.6564885,0.0550686,-9.967417,-0.3543545
211900.1,-14.85507,0.7175573,-0.9312977,-0.7175573,0.1185172,-10.03805,-0.4106202
212102,-14.97585,1.206107,-0.7633588,-0.519084,0.06464575,-10.02249,-0.3986488
212290,-15.09662,0.9465649,-0.9007633,-0.3816794,0.05147717,-9.986571,-0.2885116
212385.9,-14.85507,1.40458,-0.8091603,-0.4885496,0.04788574,-9.987769,-0.3244259
212602.6,-14.67392,1.221374,-0.7938932,-0.4427481,0.0466886,-10.04763,-0.3711145
212789.1,-15.09662,1.633588,-0.8549618,-0.5648855,0.07182861,-10.05002,-0.3387916
212883.5,-14.61353,0.8244275,-0.8396947,-0.519084,0.07182861,-9.931503,-0.3471716
213085.9,-14.97585,1.236641,-0.9007633,-0.6717557,0.1245029,-9.962628,-0.3759031
213213.1,-14.91546,1.587786,-0.9160305,-0.6717557,0.03591431,-9.954248,-0.3866774
213399.1,-14.79469,1.236641,-0.7633588,-0.5038168,0.07542004,-10.03326,-0.3962545
213588.1,-14.91546,1.022901,-0.7175573,-0.6564885,0.05746289,-10.05122,-0.3854802
213789.5,-14.79469,1.29771,-0.8244275,-0.5496183,0.1101372,-9.992558,-0.3495659
213977,-14.79469,1.236641,-0.9007633,-0.5038168,0.0742229,-9.971008,-0.3735088
214073.9,-14.91546,1.465649,-0.9007633,-0.6870229,0.1280944,-10.05122,-0.3124545
214290.1,-14.91546,0.9160305,-0.9312977,-0.6564885,0.1245029,-10.00692,-0.3639316
214477.6,-14.91546,0.8244275,-0.778626,-0.5038168,0.06943433,-10.00573,-0.3411859
214572,-14.79469,1.206107,-0.8091603,-0.5038168,0.08619434,-10.05481,-0.3818888
214774.9,-14.91546,1.465649,-0.8549618,-0.5954198,0.07901148,-9.978191,-0.3615374
214899.6,-14.91546,1.099237,-0.7175573,-0.4580153,0.0826029,-9.960235,-0.4034374
215103,-14.91546,1.099237,-0.8854962,-0.4732825,0.06823719,-10.01889,-0.3639316
215290.5,-14.91546,0.961832,-0.961832,-0.5343512,0.1161229,-10.06079,-0.4166059
215386.4,-14.97585,1.358779,-0.9770992,-0.4885496,0.05387146,-9.951855,-0.3926631
215602.6,-14.91546,0.6717557,-0.5801527,-0.6717557,0.09218005,-9.94946,-0.3663259
215697.5,-14.91546,1.099237,-0.8854962,-0.6412214,0.1005601,-9.998543,-0.3148488
215914.8,-14.79469,0.870229,-0.8854962,-0.610687,0.06823719,-10.04403,-0.3842831
216025.1,-14.91546,1.328244,-0.9007633,-0.7328244,0.03591431,-10.04044,-0.3759031
216228.5,-14.91546,1.908397,-0.6564885,-0.6259542,0.1113344,-9.963826,-0.3699174
216416.5,-14.91546,1.709924,-0.9770992,-0.6717557,0.1113344,-10.1422,-0.4166059
216525.8,-14.79469,1.358779,-0.870229,-0.6870229,0.08380005,-10.0177,-0.3507631
216728.6,-14.67392,0.961832,-0.9312977,-0.4427481,0.06344861,-9.992558,-0.3244259
216824.5,-15.03623,1.068702,-0.5496183,-0.7938932,0.1376715,-9.99136,-0.4237888
217025.4,-14.91546,1.435115,-0.7480916,-0.5496183,0.09457434,-9.933897,-0.3914659
217152.1,-15.03623,0.8549618,-0.7480916,-0.5648855,0.1652058,-9.976995,-0.3663259
217354,-14.91546,1.19084,-0.7480916,-0.7022901,0.0933772,-10.05002,-0.3806916
217542,-14.85507,1.129771,-0.7480916,-0.6259542,0.06704004,-10.03565,-0.3950574
217635.4,-14.91546,1.099237,-1.053435,-0.4732825,0.1017572,-10.03206,-0.3687202
217853.6,-14.79469,1.053435,-0.7480916,-0.6412214,0.1029543,-10.03326,-0.4273803
217947.5,-14.79469,1.221374,-1.068702,-0.6259542,0.04908289,-10.04882,-0.3603402
218150.4,-15.03623,0.870229,-0.6259542,-0.5648855,0.06105432,-10.0165,-0.3699174
218278.6,-14.91546,1.022901,-0.8549618,-0.5343512,0.05267432,-10.00573,-0.3818888
218479,-14.61353,1.435115,-0.8396947,-0.6564885,0.1173201,-9.961432,-0.3962545
218667.5,-14.79469,1.099237,-0.778626,-0.5496183,0.07661719,-9.968615,-0.3483688
218761.4,-14.61353,1.618321,-0.6870229,-0.7022901,0.06464575,-10.03565,-0.433366
218979.6,-14.79469,1.557252,-0.6412214,-0.4580153,0.03112573,-10.07875,-0.3675231
219076.5,-14.67392,1.374046,-0.6870229,-0.7633588,0.08739148,-10.00692,-0.3160459
219276.9,-14.79469,0.8244275,-0.7175573,-0.4885496,0.03950574,-9.978191,-0.3268202
219402.6,-14.91546,1.267176,-0.7938932,-0.610687,0.08619434,-9.959037,-0.3950574
219606,-14.97585,1.374046,-0.9465649,-0.7175573,0.08978577,-9.969811,-0.399846
219795.5,-14.85507,1.450382,-0.7938932,-0.610687,0.04549145,-10.02009,-0.2992859
219887.9,-14.79469,1.496183,-1.022901,-0.4732825,0.09816577,-10.02488,-0.3423831
220107.1,-15.03623,1.114504,-0.8091603,-0.7938932,0.06943433,-10.00453,-0.3399888
220293.6,-14.91546,1.221374,-0.7022901,-0.6717557,0.0466886,-10.0153,-0.3962545
220389,-14.79469,1.282443,-0.778626,-0.5038168,0.08978577,-9.985374,-0.3579459
220590.4,-14.91546,1.541985,-0.8396947,-0.5648855,0.09816577,-10.04643,-0.424986
220716.1,-14.91546,1.221374,-0.9923664,-0.6870229,0.01316858,-10.02129,-0.308863
220919,-14.91546,1.328244,-0.9007633,-0.610687,0.08978577,-9.980586,-0.3435802
221109.5,-14.79469,0.9312977,-0.9007633,-0.5038168,0.06105432,-10.0165,-0.3579459
221202.4,-14.91546,1.435115,-0.9770992,-0.7022901,0.008380005,-10.07755,-0.3100602
221419.1,-14.85507,1.312977,-0.7328244,-0.4580153,0.05746289,-10.02249,-0.3627345
221606.1,-14.91546,1.40458,-0.8549618,-0.5801527,0.04549145,-10.05002,-0.4034374
221700.5,-14.79469,1.068702,-0.7633588,-0.7022901,0.03232288,-10.03565,-0.3459745
221903.4,-14.67392,1.175573,-0.8549618,-0.6412214,0.04788574,-10.04044,-0.3627345
222029.1,-14.67392,1.099237,-1.038168,-0.7022901,0.05746289,-9.992558,-0.3711145
222232,-14.91546,1.541985,-0.6717557,-0.6259542,0.08619434,-9.976995,-0.3495659
222420,-14.61353,0.961832,-0.8396947,-0.7022901,0.1113344,-10.08115,-0.317243
222514.4,-14.91546,0.9465649,-0.6717557,-0.5648855,0.04309717,-9.961432,-0.3184402
222732.1,-14.61353,1.374046,-0.9160305,-0.5801527,0.02514002,-9.972206,-0.3902688
222919.6,-14.67392,1.633588,-0.8244275,-0.5496183,0.08858863,-9.947065,-0.3591431
223013.5,-14.79469,1.374046,-0.7480916,-0.6412214,0.1077429,-10.02129,-0.3878745
223216.9,-14.61353,1.328244,-0.7938932,-0.5648855,0.08140576,-10.01171,-0.3543545
223342.1,-14.85507,1.145038,-0.9465649,-0.5648855,0.1472487,-10.02967,-0.3040745
223544.5,-14.79469,0.9007633,-0.961832,-0.351145,0.06344861,-10.05002,-0.3232287
223732.5,-14.85507,1.450382,-0.9923664,-0.6717557,0.05028003,-10.03565,-0.3890716
223828.9,-14.79469,1.206107,-0.6870229,-0.5648855,0.04549145,-10.02009,-0.3124545
224044.6,-14.79469,1.160305,-0.7022901,-0.5648855,0.01795715,-9.98298,-0.3352002
224139,-14.79469,0.961832,-0.6717557,-0.5801527,0.03830859,-9.994951,-0.3950574
224340.9,-14.91546,0.519084,-0.9160305,-0.4885496,0.1185172,-9.973403,-0.3986488
224468.1,-14.91546,1.068702,-0.7633588,-0.6717557,0.08978577,-10.02847,-0.3651288
224654.1,-14.49276,0.9007633,-0.8854962,-0.4732825,0.1053486,-9.967417,-0.4130145
224872.4,-14.79469,0.5648855,-0.7938932,-0.7328244,0.05028003,-9.984178,-0.2980888
225044.5,-14.79469,1.145038,-0.7938932,-0.4885496,0.1089401,-9.931503,-0.4369574
225153.8,-14.79469,1.267176,-0.7480916,-0.5648855,0.08739148,-10.00333,-0.3064688
225356.6,-14.79469,1.633588,-0.9465649,-0.3664122,0.0742229,-10.04882,-0.283723
225452,-14.61353,1.251908,-0.8244275,-0.610687,0.04549145,-10.06079,-0.3627345
225653.4,-14.67392,1.206107,-0.9770992,-0.5954198,0.05267432,-9.996149,-0.3184402
225778.6,-14.67392,1.374046,-0.9007633,-0.4732825,0.1077429,-10.03805,-0.3124545
225966.1,-14.79469,1.694656,-0.7633588,-0.5343512,0.06823719,-10.0177,-0.3806916
226169,-14.61353,1.221374,-0.7328244,-0.4732825,0.07781433,-9.998543,-0.3471716
226357,-14.79469,1.450382,-1.068702,-0.5954198,0.1053486,-9.9746,-0.2705545
226547.5,-14.79469,1.328244,-0.7328244,-0.5954198,0.03471716,-10.09551,-0.3423831
226732,-14.49276,1.572519,-0.8549618,-0.3969466,0.03950574,-9.971008,-0.3100602
226841.3,-14.91546,0.6564885,-0.870229,-0.5343512,0.08619434,-10.02129,-0.3747059
227044.6,-14.79469,0.9923664,-0.9312977,-0.5801527,0.06943433,-9.985374,-0.399846
227231.1,-14.61353,0.8854962,-0.8396947,-0.6717557,0.07182861,-10.03087,-0.4261831
227326.5,-14.79469,1.160305,-0.9160305,-0.6412214,0.03830859,-9.9327,-0.3435802
227527.9,-14.85507,0.9923664,-0.5801527,-0.4885496,0.1029543,-9.947065,-0.3340031
227655.1,-14.79469,1.236641,-0.5954198,-0.5954198,0.1352772,-9.963826,-0.3423831
227856.5,-14.85507,0.870229,-0.7328244,-0.6564885,0.1173201,-10.04403,-0.3687202
228044,-14.67392,1.236641,-0.8396947,-0.7022901,0.05866003,-10.09791,-0.4010431
228140.4,-14.67392,1.282443,-0.7328244,-0.6412214,0.07781433,-10.04044,-0.3507631
228356.1,-14.61353,1.40458,-0.610687,-0.4580153,0.09577148,-10.0153,-0.4166059
228453,-14.49276,2,-0.7022901,-0.7633588,0.1304886,-9.953052,-0.3675231
228652.9,-14.79469,1.694656,-0.870229,-0.5954198,0.01795715,-9.930305,-0.3866774
228778.6,-14.91546,1.312977,-0.7328244,-0.6412214,0.06105432,-9.99136,-0.4070288
228981.5,-14.67392,1.221374,-0.870229,-0.7938932,0.1161229,-9.95784,-0.3543545
229172.5,-14.67392,0.9007633,-0.9312977,-0.6870229,0.08380005,-9.939883,-0.3340031
229263.4,-14.79469,1.618321,-0.9007633,-0.5496183,0.09098291,-10.01171,-0.3806916
229481.6,-14.61353,1.236641,-0.9465649,-0.4427481,0.08978577,-9.967417,-0.3878745
229577,-14.79469,1.206107,-0.7175573,-0.610687,0.0466886,-9.980586,-0.3423831
229778.9,-14.67392,1.633588,-0.8396947,-0.7480916,0.1233058,-9.96622,-0.4166059
229904.1,-14.55314,1.206107,-0.8549618,-0.5648855,0.08739148,-9.950657,-0.3902688
230122.9,-14.49276,0.870229,-0.6412214,-0.778626,0.03112573,-10.01889,-0.3555516
230295,-14.85507,1.312977,-0.7480916,-0.5648855,0.1316858,-9.942277,-0.399846
230388.9,-14.79469,1.038168,-0.961832,-0.6564885,0.08140576,-10.02727,-0.3387916
230607.1,-14.79469,1.160305,-0.7938932,-0.6717557,0.07542004,-9.99974,-0.3483688
230702.5,-14.43237,1.038168,-0.8244275,-0.5648855,0.09936292,-10.05361,-0.3723117
230890.5,-14.49276,1.099237,-0.8396947,-0.6870229,0.002394287,-9.944672,-0.3352002
231091.4,-14.61353,1.908397,-0.7938932,-0.4427481,0.08619434,-10.02249,-0.3771002
231218.6,-14.85507,0.9465649,-0.870229,-0.4732825,0.1053486,-10.00213,-0.3196373
231419.5,-14.91546,1.160305,-0.9007633,-0.5343512,0.0550686,-10.03087,-0.4058317
231607.5,-14.61353,0.961832,-0.7938932,-0.5496183,0.07661719,-10.07396,-0.3064688
231716.3,-14.55314,1.236641,-0.6870229,-0.4122137,0.05866003,-9.94946,-0.3567488
231919.1,-14.61353,1.496183,-0.8396947,-0.3969466,0.08140576,-10.04523,-0.3771002
232014,-14.79469,1.725191,-0.8396947,-0.6870229,0.07781433,-10.00453,-0.3782974
232216.4,-14.61353,1.587786,-0.8091603,-0.351145,0.08499719,-9.969811,-0.3914659
232342.1,-14.67392,1.312977,-0.5954198,-0.7175573,0.03830859,-9.921926,-0.3555516
232544.5,-14.67392,1.19084,-0.8396947,-0.6870229,0.09098291,-10.12783,-0.3328059
232747.4,-14.43237,0.8244275,-0.9312977,-0.5496183,0.06464575,-9.981783,-0.3304116
232826.4,-14.79469,1.068702,-0.9465649,-0.3664122,0.07542004,-10.00453,-0.3663259
233044.6,-14.67392,1.160305,-0.7022901,-0.7175573,0.1125315,-10.10629,-0.317243
233138.5,-14.49276,0.8396947,-0.9312977,-0.5496183,0.03232288,-10.03805,-0.3387916
233326.5,-14.67392,0.9923664,-0.9465649,-0.5801527,0.01676001,-9.965023,-0.2980888
233528.9,-14.49276,1.740458,-0.9160305,-0.519084,0.08739148,-9.94946,-0.3878745
233654.1,-14.79469,1.358779,-0.8854962,-0.5648855,0.03591431,-10.02368,-0.300483
233857.5,-14.37198,1.068702,-0.7328244,-0.5648855,0.02154858,-10.04763,-0.3340031
234047.5,-14.79469,1.083969,-0.9465649,-0.5343512,0.06225146,-9.956643,-0.2980888
234139.4,-14.49276,1.618321,-0.7633588,-0.519084,0.06344861,-10.02129,-0.3435802
234357.6,-14.79469,1.419847,-0.9160305,-0.4885496,0.1053486,-9.98298,-0.3507631
234544.6,-14.55314,1.160305,-0.9312977,-0.7175573,0.07182861,-9.94946,-0.3699174
234641,-14.61353,1.801527,-0.7175573,-0.5954198,0.1077429,-9.94946,-0.3579459
234841.9,-14.79469,1.374046,-0.7938932,-0.4427481,0.06943433,-10.00094,-0.3615374
234966.6,-14.61353,1.572519,-0.7480916,-0.5343512,0.1245029,-10.05361,-0.3387916
235169.5,-14.79469,1.374046,-0.9312977,-0.5801527,0.06225146,-10.06319,-0.3699174
235373.4,-14.43237,0.870229,-0.7175573,-0.5496183,0.04549145,-10.01411,-0.3435802
235547,-14.43237,1.450382,-0.8396947,-0.610687,0.05866003,-9.951855,-0.3794945
235736,-14.43237,0.8244275,-0.8549618,-0.6717557,0.01795715,-10.00573,-0.3567488
235921.5,-14.61353,1.618321,-1.206107,-0.6412214,0.1532344,-9.99974,-0.3280173
236017.4,-14.61353,1.19084,-0.6259542,-0.610687,0.09696863,-9.987769,-0.3268202
236232.6,-14.61353,1.19084,-0.8549618,-0.610687,0.1041515,-9.984178,-0.3352002
236422.6,-14.43237,1.603053,-0.7328244,-0.5343512,0.0826029,-9.967417,-0.3471716
236608.6,-14.55314,1.251908,-0.5954198,-0.6717557,0.05028003,-10.03805,-0.3938602
236702.5,-14.49276,0.7175573,-0.7633588,-0.5801527,0.08858863,-10.02368,-0.3735088
236905.9,-14.67392,1.007634,-0.9312977,-0.5343512,0.07063147,-10.0165,-0.3040745
237046.5,-14.43237,0.9770992,-0.9160305,-0.5801527,0.04190002,-10.03446,-0.3723117
237235,-14.61353,1.343511,-0.7480916,-0.4732825,0.06823719,-9.99974,-0.3866774
237330.9,-14.3116,1.389313,-0.6717557,-0.7175573,0.05626575,-9.973403,-0.4130145
237547.1,-14.61353,1.022901,-0.7633588,-0.6717557,0.1161229,-10.00812,-0.4058317
237734.1,-14.61353,1.541985,-0.7938932,-0.5496183,0.07542004,-9.96622,-0.3615374
237875.3,-14.61353,0.9160305,-1.160305,-0.7480916,0.0933772,-9.943475,-0.3495659
238031.9,-14.61353,1.114504,-0.7022901,-0.6412214,0.07182861,-9.94946,-0.3818888
238156.6,-14.49276,1.038168,-0.778626,-0.3358779,0.08380005,-10.0991,-0.3711145
238344.1,-14.67392,1.709924,-0.8396947,-0.5038168,0.04788574,-9.972206,-0.3735088
238547,-14.79469,1.175573,-0.7633588,-0.5038168,0.0466886,-9.98298,-0.3782974
238737,-14.3116,1.343511,-0.7175573,-0.610687,0.06823719,-10.00812,-0.3639316
238828.4,-14.85507,1.206107,-0.8244275,-0.6412214,0.09577148,-9.993754,-0.3447773
239046.6,-14.43237,1.282443,-0.7175573,-0.5496183,0.1161229,-9.996149,-0.3220316
239141,-14.55314,0.7328244,-0.8396947,-0.5496183,0.1185172,-10.03925,-0.3555516
239359.3,-14.49276,0.9465649,-0.8854962,-0.2137405,0.02154858,-10.02009,-0.3639316
239470.6,-14.55314,1.099237,-0.5954198,-0.5954198,0.04788574,-10.02009,-0.4190002
239656.6,-14.37198,1.175573,-0.9312977,-0.778626,0.1077429,-10.01889,-0.3854802
239859.5,-14.49276,1.389313,-0.9007633,-0.610687,0.1149258,-10.02368,-0.3914659
240047.5,-14.43237,1.221374,-1.007634,-0.6412214,0.0826029,-9.953052,-0.3268202
240141.4,-14.49276,1.221374,-0.6870229,-0.5343512,0.1017572,-10.04284,-0.3687202
240361.6,-14.49276,1.022901,-0.8396947,-0.5038168,0.05985718,-10.00812,-0.3615374
240547.1,-14.37198,1.29771,-0.7633588,-0.519084,0.004788574,-10.01291,-0.3663259
240642,-14.43237,1.419847,-0.9923664,-0.7328244,0.08978577,-10.02488,-0.3483688
240859.3,-14.55314,0.8549618,-0.7633588,-0.6870229,0.07182861,-10.00213,-0.3615374
240970.6,-14.61353,1.740458,-0.9160305,-0.5343512,0.07661719,-10.02967,-0.3794945
241171.5,-14.37198,1.603053,-0.8549618,-0.6717557,0.01676001,-10.02727,-0.3806916
241374.4,-14.43237,1.129771,-0.7938932,-0.7633588,0.1292915,-10.0584,-0.3328059
241453.4,-14.43237,1.419847,-0.8091603,-0.6717557,0.0742229,-10.06079,-0.3555516
241672.6,-14.91546,0.9312977,-0.9312977,-0.5801527,0.0658429,-10.00692,-0.3663259
241859.1,-14.43237,1.29771,-0.6259542,-0.7175573,0.02514002,-9.976995,-0.3471716
241956,-14.49276,1.328244,-1.038168,-0.610687,0.07302576,-10.02488,-0.3148488
242155.9,-14.61353,1.450382,-0.778626,-0.6259542,0.06105432,-10.06079,-0.3675231
242281.6,-14.67392,0.8091603,-0.9007633,-0.519084,0.08739148,-10.02129,-0.3435802
242484,-14.37198,1.068702,-0.9465649,-0.5954198,0.07063147,-9.988966,-0.3495659
